pos,corr_resp,trials.thisRepN,trials.thisTrialN,trials.thisN,trials.thisIndex,trials_2.thisRepN,trials_2.thisTrialN,trials_2.thisN,trials_2.thisIndex,fixation.started,line1.started,line2.started,line3.started,line4.started,fixation.stopped,probe.started,key_resp.started,key_resp.keys,key_resp.corr,key_resp.rt,key_resp.duration,participant,session,date,expName,psychopyVersion,frameRate,
-50,x,0,0,0,0,,,,,17.693948300089687,18.69227509992197,18.69227509992197,18.69227509992197,18.69227509992197,18.709477100055665,19.6931615001522,19.6931615001522,x,1,1.3776704999618232,None,14,001,2023-10-16_22h50.02.683,Lab experiment 4,2023.1.3,61.27841471765154,
150,v,0,1,1,1,,,,,21.093132900074124,22.093543900176883,22.093543900176883,22.093543900176883,22.093543900176883,22.093543900176883,23.094417000189424,23.094417000189424,v,1,1.1002127001993358,None,14,001,2023-10-16_22h50.02.683,Lab experiment 4,2023.1.3,61.27841471765154,
50,c,0,2,2,2,,,,,24.21090180007741,25.211886799894273,25.211886799894273,25.211886799894273,25.211886799894273,25.211886799894273,26.212253999896348,26.212253999896348,c,1,1.3631243999116123,None,14,001,2023-10-16_22h50.02.683,Lab experiment 4,2023.1.3,61.27841471765154,
-150,z,0,3,3,3,,,,,27.59550949977711,28.596025600098073,28.596025600098073,28.596025600098073,28.596025600098073,28.596025600098073,29.596873600035906,29.596873600035906,z,1,0.5704763000831008,None,14,001,2023-10-16_22h50.02.683,Lab experiment 4,2023.1.3,61.27841471765154,
-50,x,1,0,4,0,,,,,30.19710909994319,31.19686059979722,31.19686059979722,31.19686059979722,31.19686059979722,31.19686059979722,32.18053520005196,32.18053520005196,x,1,0.7829277999699116,None,14,001,2023-10-16_22h50.02.683,Lab experiment 4,2023.1.3,61.27841471765154,
150,v,1,1,5,1,,,,,32.981100199744105,33.98186459997669,33.98186459997669,33.98186459997669,33.98186459997669,33.98186459997669,34.982253999914974,34.982253999914974,v,1,0.5665490999817848,None,14,001,2023-10-16_22h50.02.683,Lab experiment 4,2023.1.3,61.27841471765154,
50,c,1,2,6,2,,,,,35.56579570006579,36.56582510005683,36.56582510005683,36.56582510005683,36.56582510005683,36.56582510005683,37.56619550008327,37.56619550008327,c,1,0.5958111002109945,None,14,001,2023-10-16_22h50.02.683,Lab experiment 4,2023.1.3,61.27841471765154,
-150,z,1,3,7,3,,,,,38.18345839995891,39.183461899869144,39.183461899869144,39.183461899869144,39.183461899869144,39.183461899869144,40.18361030006781,40.18361030006781,z,1,0.4877386000007391,None,14,001,2023-10-16_22h50.02.683,Lab experiment 4,2023.1.3,61.27841471765154,
-50,x,2,0,8,0,,,,,40.70108069991693,41.70145760010928,41.70145760010928,41.70145760010928,41.70145760010928,41.70145760010928,42.68465750012547,42.68465750012547,c,0,0.6757282000035048,None,14,001,2023-10-16_22h50.02.683,Lab experiment 4,2023.1.3,61.27841471765154,
150,v,2,1,9,1,,,,,43.3848565001972,44.38523390004411,44.38523390004411,44.38523390004411,44.38523390004411,44.38523390004411,45.38619549991563,45.38619549991563,v,1,0.9580108001828194,None,14,001,2023-10-16_22h50.02.683,Lab experiment 4,2023.1.3,61.27841471765154,
50,c,2,2,10,2,,,,,46.36990279983729,47.35357209993526,47.35357209993526,47.35357209993526,47.35357209993526,47.36983529990539,48.35363829974085,48.35363829974085,c,1,1.0535303000360727,None,14,001,2023-10-16_22h50.02.683,Lab experiment 4,2023.1.3,61.27841471765154,
-150,z,2,3,11,3,,,,,49.43729289993644,50.4380983998999,50.4380983998999,50.4380983998999,50.4380983998999,50.4380983998999,51.42180350003764,51.42180350003764,z,1,0.5349162998609245,None,14,001,2023-10-16_22h50.02.683,Lab experiment 4,2023.1.3,61.27841471765154,
-50,x,3,0,12,0,,,,,51.98808090016246,52.97191799990833,52.97191799990833,52.97191799990833,52.97191799990833,52.988560599740595,53.97277020011097,53.97277020011097,x,1,0.8335556001402438,None,14,001,2023-10-16_22h50.02.683,Lab experiment 4,2023.1.3,61.27841471765154,
150,v,3,1,13,1,,,,,54.83977170009166,55.840168700087816,55.840168700087816,55.840168700087816,55.840168700087816,55.840168700087816,56.840525299776345,56.840525299776345,v,1,0.6355526000261307,None,14,001,2023-10-16_22h50.02.683,Lab experiment 4,2023.1.3,61.27841471765154,
50,c,3,2,14,2,,,,,57.50684309983626,58.50733170006424,58.50733170006424,58.50733170006424,58.50733170006424,58.50733170006424,59.507717799860984,59.507717799860984,c,1,1.292515099979937,None,14,001,2023-10-16_22h50.02.683,Lab experiment 4,2023.1.3,61.27841471765154,
-150,z,3,3,15,3,,,,,60.824784900061786,61.825336299836636,61.825336299836636,61.825336299836636,61.825336299836636,61.825336299836636,62.826120799873024,62.826120799873024,z,1,0.5062739001587033,None,14,001,2023-10-16_22h50.02.683,Lab experiment 4,2023.1.3,61.27841471765154,
-50,x,4,0,16,0,,,,,63.35964999999851,64.35932909976691,64.35932909976691,64.35932909976691,64.35932909976691,64.35932909976691,65.36018100008368,65.36018100008368,x,1,0.5124130002222955,None,14,001,2023-10-16_22h50.02.683,Lab experiment 4,2023.1.3,61.27841471765154,
150,v,4,1,17,1,,,,,65.89395029982552,66.89387129992247,66.89387129992247,66.89387129992247,66.89387129992247,66.89387129992247,67.89470349997282,67.89470349997282,v,1,1.3571124002337456,None,14,001,2023-10-16_22h50.02.683,Lab experiment 4,2023.1.3,61.27841471765154,
50,c,4,2,18,2,,,,,69.27797879977152,70.27832299983129,70.27832299983129,70.27832299983129,70.27832299983129,70.27832299983129,71.27873730007559,71.27873730007559,c,1,0.5899609001353383,None,14,001,2023-10-16_22h50.02.683,Lab experiment 4,2023.1.3,61.27841471765154,
-150,z,4,3,19,3,,,,,71.89622229989618,72.89594329986721,72.89594329986721,72.89594329986721,72.89594329986721,72.89594329986721,73.88030639989302,73.88030639989302,z,1,1.0883885002695024,None,14,001,2023-10-16_22h50.02.683,Lab experiment 4,2023.1.3,61.27841471765154,
-50,x,5,0,20,0,,,,,74.99682989995927,75.99777900008485,75.99777900008485,75.99777900008485,75.99777900008485,75.99777900008485,76.98148309998214,76.98148309998214,x,1,0.5074450001120567,None,14,001,2023-10-16_22h50.02.683,Lab experiment 4,2023.1.3,61.27841471765154,
150,v,5,1,21,1,,,,,77.51442079991102,78.51540399994701,78.51540399994701,78.51540399994701,78.51540399994701,78.51540399994701,79.49910910008475,79.49910910008475,v,1,0.5509328003972769,None,14,001,2023-10-16_22h50.02.683,Lab experiment 4,2023.1.3,61.27841471765154,
50,c,5,2,22,2,,,,,80.08265790017322,81.08303980017081,81.08303980017081,81.08303980017081,81.08303980017081,81.08303980017081,82.08279519993812,82.08279519993812,c,1,0.5778218004852533,None,14,001,2023-10-16_22h50.02.683,Lab experiment 4,2023.1.3,61.27841471765154,
-150,z,5,3,23,3,,,,,82.68315650010481,83.6840174999088,83.6840174999088,83.6840174999088,83.6840174999088,83.6840174999088,84.66772049991414,84.66772049991414,z,1,0.5314262001775205,None,14,001,2023-10-16_22h50.02.683,Lab experiment 4,2023.1.3,61.27841471765154,
-50,x,6,0,24,0,,,,,85.21748099988326,86.20163579983637,86.20163579983637,86.20163579983637,86.20163579983637,86.21830789977685,87.20202089985833,87.20202089985833,x,1,0.7844235999509692,None,14,001,2023-10-16_22h50.02.683,Lab experiment 4,2023.1.3,61.27841471765154,
150,v,6,1,25,1,,,,,88.0184995001182,89.01937100011855,89.01937100011855,89.01937100011855,89.01937100011855,89.01937100011855,90.00308409985155,90.00308409985155,v,1,1.0351136000826955,None,14,001,2023-10-16_22h50.02.683,Lab experiment 4,2023.1.3,61.27841471765154,
50,c,6,2,26,2,,,,,91.07014810014516,92.07052809977904,92.07052809977904,92.07052809977904,92.07052809977904,92.07052809977904,93.05359320016578,93.05359320016578,c,1,1.986975200008601,None,14,001,2023-10-16_22h50.02.683,Lab experiment 4,2023.1.3,61.27841471765154,
-150,z,6,3,27,3,,,,,95.07166100014001,96.0716174999252,96.0716174999252,96.0716174999252,96.0716174999252,96.0716174999252,97.0719399000518,97.0719399000518,z,1,0.7287264997139573,None,14,001,2023-10-16_22h50.02.683,Lab experiment 4,2023.1.3,61.27841471765154,
-50,x,7,0,28,0,,,,,97.82226519985124,98.82276460016146,98.82276460016146,98.82276460016146,98.82276460016146,98.82276460016146,99.82346529979259,99.82346529979259,x,1,0.6306020999327302,None,14,001,2023-10-16_22h50.02.683,Lab experiment 4,2023.1.3,61.27841471765154,
150,v,7,1,29,1,,,,,100.47322050016373,101.45688439998776,101.45688439998776,101.45688439998776,101.45688439998776,101.47408960014582,102.45778890000656,102.45778890000656,v,1,1.0976923000998795,None,14,001,2023-10-16_22h50.02.683,Lab experiment 4,2023.1.3,61.27841471765154,
50,c,7,2,30,2,,,,,103.57425400009379,104.57464700005949,104.57464700005949,104.57464700005949,104.57464700005949,104.57464700005949,105.55896720010787,105.55896720010787,c,1,0.556481400039047,None,14,001,2023-10-16_22h50.02.683,Lab experiment 4,2023.1.3,61.27841471765154,
-150,z,7,3,31,3,,,,,106.14252249989659,107.12622979981825,107.12622979981825,107.12622979981825,107.12622979981825,107.14289430016652,108.12660849979147,108.12660849979147,z,1,0.5628915000706911,None,14,001,2023-10-16_22h50.02.683,Lab experiment 4,2023.1.3,61.27841471765154,
-50,x,8,0,32,0,,,,,108.70929560018703,109.69318859977648,109.69318859977648,109.69318859977648,109.69318859977648,109.70986599987373,110.71092699980363,110.71092699980363,x,1,1.2184446998871863,None,14,001,2023-10-16_22h50.02.683,Lab experiment 4,2023.1.3,61.27841471765154,
150,v,8,1,33,1,,,,,111.96138919983059,112.96177610009909,112.96177610009909,112.96177610009909,112.96177610009909,112.96177610009909,113.94547870010138,113.94547870010138,v,1,1.0532707003876567,None,14,001,2023-10-16_22h50.02.683,Lab experiment 4,2023.1.3,61.27841471765154,
50,c,8,2,34,2,,,,,115.02866669977084,116.01240090001374,116.01240090001374,116.01240090001374,116.01240090001374,116.0292087001726,117.01293670013547,117.01293670013547,c,1,0.6604992002248764,None,14,001,2023-10-16_22h50.02.683,Lab experiment 4,2023.1.3,61.27841471765154,
-150,z,8,3,35,3,,,,,117.69690570002422,118.69728039996698,118.69728039996698,118.69728039996698,118.69728039996698,118.69728039996698,119.68098639976233,119.68098639976233,z,1,0.7889461000449955,None,14,001,2023-10-16_22h50.02.683,Lab experiment 4,2023.1.3,61.27841471765154,
-50,x,9,0,36,0,,,,,120.49716159980744,121.49793090019375,121.49793090019375,121.49793090019375,121.49793090019375,121.49793090019375,122.49871259974316,122.49871259974316,x,1,0.3769569997675717,None,14,001,2023-10-16_22h50.02.683,Lab experiment 4,2023.1.3,61.27841471765154,
150,v,9,1,37,1,,,,,122.8988749999553,123.89869609987363,123.89869609987363,123.89869609987363,123.89869609987363,123.89869609987363,124.89918990014121,124.89918990014121,v,1,0.47821269975975156,None,14,001,2023-10-16_22h50.02.683,Lab experiment 4,2023.1.3,61.27841471765154,
50,c,9,2,38,2,,,,,125.39981399988756,126.40019010007381,126.40019010007381,126.40019010007381,126.40019010007381,126.40019010007381,127.38317340007052,127.38317340007052,c,1,0.6348752002231777,None,14,001,2023-10-16_22h50.02.683,Lab experiment 4,2023.1.3,61.27841471765154,
-150,z,9,3,39,3,,,,,128.0508181997575,129.05045039998367,129.05045039998367,129.05045039998367,129.05045039998367,129.05045039998367,130.03437579981983,130.03437579981983,z,1,0.5091315000317991,None,14,001,2023-10-16_22h50.02.683,Lab experiment 4,2023.1.3,61.27841471765154,
-50,x,10,0,40,0,,,,,130.568433099892,131.55214719986543,131.55214719986543,131.55214719986543,131.55214719986543,131.56881800014526,132.5517327999696,132.5517327999696,x,1,0.36244089994579554,None,14,001,2023-10-16_22h50.02.683,Lab experiment 4,2023.1.3,61.27841471765154,
150,v,10,1,41,1,,,,,132.9359948998317,133.93592339986935,133.93592339986935,133.93592339986935,133.93592339986935,133.93592339986935,134.9367563999258,134.9367563999258,v,1,0.5561297996900976,None,14,001,2023-10-16_22h50.02.683,Lab experiment 4,2023.1.3,61.27841471765154,
50,c,10,2,42,2,,,,,135.52031339984387,136.50402269978076,136.50402269978076,136.50402269978076,136.50402269978076,136.52069320017472,137.50438239984214,137.50438239984214,c,1,0.6764199999161065,None,14,001,2023-10-16_22h50.02.683,Lab experiment 4,2023.1.3,61.27841471765154,
-150,z,10,3,43,3,,,,,138.20468229986727,139.20451849978417,139.20451849978417,139.20451849978417,139.20451849978417,139.20451849978417,140.2054226999171,140.2054226999171,z,1,0.3625342003069818,None,14,001,2023-10-16_22h50.02.683,Lab experiment 4,2023.1.3,61.27841471765154,
-50,x,11,0,44,0,,,,,140.58890209998935,141.5892806001939,141.5892806001939,141.5892806001939,141.5892806001939,141.5892806001939,142.57241690019146,142.57241690019146,x,1,0.32909120013937354,None,14,001,2023-10-16_22h50.02.683,Lab experiment 4,2023.1.3,61.27841471765154,
150,v,11,1,45,1,,,,,142.92312319995835,143.9231354999356,143.9231354999356,143.9231354999356,143.9231354999356,143.9231354999356,144.92321499995887,144.92321499995887,v,1,0.48983110021799803,None,14,001,2023-10-16_22h50.02.683,Lab experiment 4,2023.1.3,61.27841471765154,
50,c,11,2,46,2,,,,,145.44073779974133,146.4404775998555,146.4404775998555,146.4404775998555,146.4404775998555,146.4404775998555,147.4409528998658,147.4409528998658,c,1,0.5274650999344885,None,14,001,2023-10-16_22h50.02.683,Lab experiment 4,2023.1.3,61.27841471765154,
-150,z,11,3,47,3,,,,,147.991224499885,148.99176440015435,148.99176440015435,148.99176440015435,148.99176440015435,148.99176440015435,149.99245750019327,149.99245750019327,z,1,0.508514900226146,None,14,001,2023-10-16_22h50.02.683,Lab experiment 4,2023.1.3,61.27841471765154,
-50,x,12,0,48,0,,,,,150.5253912997432,151.5256937998347,151.5256937998347,151.5256937998347,151.5256937998347,151.5256937998347,152.52675950014964,152.52675950014964,x,1,0.5052621001377702,None,14,001,2023-10-16_22h50.02.683,Lab experiment 4,2023.1.3,61.27841471765154,
150,v,12,1,49,1,,,,,153.05981170013547,154.0606680000201,154.0606680000201,154.0606680000201,154.0606680000201,154.0606680000201,155.04437270015478,155.04437270015478,v,1,0.40995820006355643,None,14,001,2023-10-16_22h50.02.683,Lab experiment 4,2023.1.3,61.27841471765154,
50,c,12,2,50,2,,,,,155.47716270014644,156.47786560002714,156.47786560002714,156.47786560002714,156.47786560002714,156.47786560002714,157.47863860009238,157.47863860009238,c,1,0.5563962003216147,None,14,001,2023-10-16_22h50.02.683,Lab experiment 4,2023.1.3,61.27841471765154,
-150,z,12,3,51,3,,,,,158.06218090001494,159.0625629001297,159.0625629001297,159.0625629001297,159.0625629001297,159.0625629001297,160.06236759992316,160.06236759992316,z,1,0.3303954000584781,None,14,001,2023-10-16_22h50.02.683,Lab experiment 4,2023.1.3,61.27841471765154,
-50,x,13,0,52,0,,,,,160.41307239979506,161.41280309995636,161.41280309995636,161.41280309995636,161.41280309995636,161.41280309995636,162.41340109985322,162.41340109985322,x,1,1.091609800234437,None,14,001,2023-10-16_22h50.02.683,Lab experiment 4,2023.1.3,61.27841471765154,
150,v,13,1,53,1,,,,,163.5309223998338,164.53130749985576,164.53130749985576,164.53130749985576,164.53130749985576,164.53130749985576,165.53131299978122,165.53131299978122,v,1,0.4351148004643619,None,14,001,2023-10-16_22h50.02.683,Lab experiment 4,2023.1.3,61.27841471765154,
50,c,13,2,54,2,,,,,165.99807129986584,166.99890829995275,166.99890829995275,166.99890829995275,166.99890829995275,166.99890829995275,167.99929019995034,167.99929019995034,c,1,0.740037000272423,None,14,001,2023-10-16_22h50.02.683,Lab experiment 4,2023.1.3,61.27841471765154,
-150,z,13,3,55,3,,,,,168.76623419998214,169.76661900011823,169.76661900011823,169.76661900011823,169.76661900011823,169.76661900011823,170.7664985000156,170.7664985000156,z,1,0.6919828001409769,None,14,001,2023-10-16_22h50.02.683,Lab experiment 4,2023.1.3,61.27841471765154,
-50,x,14,0,56,0,,,,,171.48393800016493,172.4843127997592,172.4843127997592,172.4843127997592,172.4843127997592,172.4843127997592,173.48469049995765,173.48469049995765,x,1,0.7214243998751044,None,14,001,2023-10-16_22h50.02.683,Lab experiment 4,2023.1.3,61.27841471765154,
150,v,14,1,57,1,,,,,174.2349748001434,175.23535329988226,175.23535329988226,175.23535329988226,175.23535329988226,175.23535329988226,176.23521459987387,176.23521459987387,v,1,0.6411735001020133,None,14,001,2023-10-16_22h50.02.683,Lab experiment 4,2023.1.3,61.27841471765154,
50,c,14,2,58,2,,,,,176.90265229996294,177.902585899923,177.902585899923,177.902585899923,177.902585899923,177.902585899923,178.9034139001742,178.9034139001742,c,1,0.8726260000839829,None,14,001,2023-10-16_22h50.02.683,Lab experiment 4,2023.1.3,61.27841471765154,
-150,z,14,3,59,3,,,,,179.80375050008297,180.78708480019122,180.78708480019122,180.78708480019122,180.78708480019122,180.80350479995832,181.78739510010928,181.78739510010928,z,1,0.5984439002349973,None,14,001,2023-10-16_22h50.02.683,Lab experiment 4,2023.1.3,61.27841471765154,
-50,x,15,0,60,0,,,,,182.40403509978205,183.40436729975045,183.40436729975045,183.40436729975045,183.40436729975045,183.40436729975045,184.3888181000948,184.3888181000948,x,1,0.4831399000249803,None,14,001,2023-10-16_22h50.02.683,Lab experiment 4,2023.1.3,61.27841471765154,
150,v,15,1,61,1,,,,,184.88899509981275,185.8889011000283,185.8889011000283,185.8889011000283,185.8889011000283,185.8889011000283,186.8894587000832,186.8894587000832,v,1,0.6477210000157356,None,14,001,2023-10-16_22h50.02.683,Lab experiment 4,2023.1.3,61.27841471765154,
50,c,15,2,62,2,,,,,187.5562541000545,188.5570735000074,188.5570735000074,188.5570735000074,188.5570735000074,188.5570735000074,189.54076959984377,189.54076959984377,c,1,0.732096700463444,None,14,001,2023-10-16_22h50.02.683,Lab experiment 4,2023.1.3,61.27841471765154,
-150,z,15,3,63,3,,,,,190.29031160008162,191.29143550014123,191.29143550014123,191.29143550014123,191.29143550014123,191.29143550014123,192.27514609973878,192.27514609973878,z,1,0.41771599976345897,None,14,001,2023-10-16_22h50.02.683,Lab experiment 4,2023.1.3,61.27841471765154,
-50,x,16,0,64,0,,,,,192.72470640018582,193.72568969987333,193.72568969987333,193.72568969987333,193.72568969987333,193.72568969987333,194.70940160006285,194.70940160006285,x,1,0.40036770002916455,None,14,001,2023-10-16_22h50.02.683,Lab experiment 4,2023.1.3,61.27841471765154,
150,v,16,1,65,1,,,,,195.1255828998983,196.1259964001365,196.1259964001365,196.1259964001365,196.1259964001365,196.1259964001365,197.12697409978136,197.12697409978136,v,1,0.6472781002521515,None,14,001,2023-10-16_22h50.02.683,Lab experiment 4,2023.1.3,61.27841471765154,
50,c,16,2,66,2,,,,,197.79389570001513,198.79426399990916,198.79426399990916,198.79426399990916,198.79426399990916,198.79426399990916,199.7779788998887,199.7779788998887,c,1,1.705767699982971,None,14,001,2023-10-16_22h50.02.683,Lab experiment 4,2023.1.3,61.27841471765154,
-150,z,16,3,67,3,,,,,201.51197079988196,202.5117954001762,202.5117954001762,202.5117954001762,202.5117954001762,202.5117954001762,203.49552860017866,203.49552860017866,z,1,0.6786048002541065,None,14,001,2023-10-16_22h50.02.683,Lab experiment 4,2023.1.3,61.27841471765154,
-50,x,17,0,68,0,,,,,204.19562749983743,205.1966923000291,205.1966923000291,205.1966923000291,205.1966923000291,205.1966923000291,206.18040709989145,206.18040709989145,x,1,2.0426993002183735,None,14,001,2023-10-16_22h50.02.683,Lab experiment 4,2023.1.3,61.27841471765154,
150,v,17,1,69,1,,,,,208.24730859976262,209.24759879987687,209.24759879987687,209.24759879987687,209.24759879987687,209.24759879987687,210.24861409980804,210.24861409980804,v,1,0.40279959980398417,None,14,001,2023-10-16_22h50.02.683,Lab experiment 4,2023.1.3,61.27841471765154,
50,c,17,2,70,2,,,,,210.68169690016657,211.68194560008124,211.68194560008124,211.68194560008124,211.68194560008124,211.68194560008124,212.68287030002102,212.68287030002102,c,1,3.910873499698937,None,14,001,2023-10-16_22h50.02.683,Lab experiment 4,2023.1.3,61.27841471765154,
-150,z,17,3,71,3,,,,,216.61712160008028,217.61774129979312,217.61774129979312,217.61774129979312,217.61774129979312,217.61774129979312,218.61844180012122,218.61844180012122,z,1,0.5887660002335906,None,14,001,2023-10-16_22h50.02.683,Lab experiment 4,2023.1.3,61.27841471765154,
-50,x,18,0,72,0,,,,,219.23459339980036,220.23529049986973,220.23529049986973,220.23529049986973,220.23529049986973,220.23529049986973,221.23610660014674,221.23610660014674,x,1,0.3395119998604059,None,14,001,2023-10-16_22h50.02.683,Lab experiment 4,2023.1.3,61.27841471765154,
150,v,18,1,73,1,,,,,221.60241399984807,222.58607809990644,222.58607809990644,222.58607809990644,222.58607809990644,222.60329570015892,223.5870015998371,223.5870015998371,v,1,1.7733172997832298,None,14,001,2023-10-16_22h50.02.683,Lab experiment 4,2023.1.3,61.27841471765154,
50,c,18,2,74,2,,,,,225.3871372998692,226.3875887999311,226.3875887999311,226.3875887999311,226.3875887999311,226.3875887999311,227.37176450015977,227.37176450015977,c,1,0.6131270001642406,None,14,001,2023-10-16_22h50.02.683,Lab experiment 4,2023.1.3,61.27841471765154,
-150,z,18,3,75,3,,,,,228.0049112001434,229.00532589992508,229.00532589992508,229.00532589992508,229.00532589992508,229.00532589992508,230.00609350018203,230.00609350018203,z,1,1.2914098999463022,None,14,001,2023-10-16_22h50.02.683,Lab experiment 4,2023.1.3,61.27841471765154,
-50,x,19,0,76,0,,,,,231.32266760012135,232.3236401998438,232.3236401998438,232.3236401998438,232.3236401998438,232.3236401998438,233.32403079979122,233.32403079979122,x,1,0.8951880000531673,None,14,001,2023-10-16_22h50.02.683,Lab experiment 4,2023.1.3,61.27841471765154,
150,v,19,1,77,1,,,,,234.2410249998793,235.24108299985528,235.24108299985528,235.24108299985528,235.24108299985528,235.24108299985528,236.24124700017273,236.24124700017273,v,1,0.5365372002124786,None,14,001,2023-10-16_22h50.02.683,Lab experiment 4,2023.1.3,61.27841471765154,
50,c,19,2,78,2,,,,,236.80812289984897,237.8085036999546,237.8085036999546,237.8085036999546,237.8085036999546,237.8085036999546,238.7927533001639,238.7927533001639,c,1,0.6130172000266612,None,14,001,2023-10-16_22h50.02.683,Lab experiment 4,2023.1.3,61.27841471765154,
-150,z,19,3,79,3,,,,,239.4255977999419,240.42616079980507,240.42616079980507,240.42616079980507,240.42616079980507,240.42616079980507,241.426514999941,241.426514999941,z,1,0.6702728997915983,None,14,001,2023-10-16_22h50.02.683,Lab experiment 4,2023.1.3,61.27841471765154,
-50,x,20,0,80,0,,,,,242.1265977998264,243.12773589976132,243.12773589976132,243.12773589976132,243.12773589976132,243.12773589976132,244.1276016999036,244.1276016999036,1,0,0.4497929001227021,None,14,001,2023-10-16_22h50.02.683,Lab experiment 4,2023.1.3,61.27841471765154,
150,v,20,1,81,1,,,,,244.59443779988214,245.59483570000157,245.59483570000157,245.59483570000157,245.59483570000157,245.59483570000157,246.59570779977366,246.59570779977366,z,0,2.597293000202626,None,14,001,2023-10-16_22h50.02.683,Lab experiment 4,2023.1.3,61.27841471765154,
50,c,20,2,82,2,,,,,249.2128444998525,250.2137505998835,250.2137505998835,250.2137505998835,250.2137505998835,250.2137505998835,251.19746829988435,251.19746829988435,c,1,1.473452600184828,None,14,001,2023-10-16_22h50.02.683,Lab experiment 4,2023.1.3,61.27841471765154,
-150,z,20,3,83,3,,,,,252.69761379994452,253.68124340008944,253.68124340008944,253.68124340008944,253.68124340008944,253.69840459991246,254.6821075999178,254.6821075999178,z,1,1.9207888999953866,None,14,001,2023-10-16_22h50.02.683,Lab experiment 4,2023.1.3,61.27841471765154,
-50,x,21,0,84,0,,,,,256.63284760015085,257.63323409995064,257.63323409995064,257.63323409995064,257.63323409995064,257.63323409995064,258.61633790005,258.61633790005,x,1,0.910184399690479,None,14,001,2023-10-16_22h50.02.683,Lab experiment 4,2023.1.3,61.27841471765154,
150,v,21,1,85,1,,,,,259.5506215998903,260.5509997997433,260.5509997997433,260.5509997997433,260.5509997997433,260.5509997997433,261.55082819983363,261.55082819983363,v,1,0.6932948003523052,None,14,001,2023-10-16_22h50.02.683,Lab experiment 4,2023.1.3,61.27841471765154,
50,c,21,2,86,2,,,,,262.26831390010193,263.2520253001712,263.2520253001712,263.2520253001712,263.2520253001712,263.26869869977236,264.25173550006,264.25173550006,c,1,0.7984995003789663,None,14,001,2023-10-16_22h50.02.683,Lab experiment 4,2023.1.3,61.27841471765154,
-150,z,21,3,87,3,,,,,265.0689354999922,266.0697682998143,266.0697682998143,266.0697682998143,266.0697682998143,266.0697682998143,267.0534610999748,267.0534610999748,z,1,1.1758816000074148,None,14,001,2023-10-16_22h50.02.683,Lab experiment 4,2023.1.3,61.27841471765154,
-50,x,22,0,88,0,,,,,268.25336850015447,269.2538442001678,269.2538442001678,269.2538442001678,269.2538442001678,269.2538442001678,270.2380019999109,270.2380019999109,x,1,24.657666600309312,None,14,001,2023-10-16_22h50.02.683,Lab experiment 4,2023.1.3,61.27841471765154,
150,v,22,1,89,1,,,,,294.91350460005924,295.9143961998634,295.9143961998634,295.9143961998634,295.9143961998634,295.9143961998634,296.9147744998336,296.9147744998336,v,1,8.11902409978211,None,14,001,2023-10-16_22h50.02.683,Lab experiment 4,2023.1.3,61.27841471765154,
50,c,22,2,90,2,,,,,305.05076330015436,306.03470259997994,306.03470259997994,306.03470259997994,306.03470259997994,306.05156889976934,307.0519480998628,307.0519480998628,c,1,3.2343669002875686,None,14,001,2023-10-16_22h50.02.683,Lab experiment 4,2023.1.3,61.27841471765154,
-150,z,22,3,91,3,,,,,310.3026040997356,311.30307290004566,311.30307290004566,311.30307290004566,311.30307290004566,311.30307290004566,312.30392930004746,312.30392930004746,z,1,0.7978540002368391,None,14,001,2023-10-16_22h50.02.683,Lab experiment 4,2023.1.3,61.27841471765154,
-50,x,23,0,92,0,,,,,313.12065199995413,314.1208310998045,314.1208310998045,314.1208310998045,314.1208310998045,314.1208310998045,315.1216679997742,315.1216679997742,x,1,1.517196100205183,None,14,001,2023-10-16_22h50.02.683,Lab experiment 4,2023.1.3,61.27841471765154,
150,v,23,1,93,1,,,,,316.672250200063,317.65541929984465,317.65541929984465,317.65541929984465,317.65541929984465,317.67262869980186,318.6558445999399,318.6558445999399,v,1,1.1344137000851333,None,14,001,2023-10-16_22h50.02.683,Lab experiment 4,2023.1.3,61.27841471765154,
50,c,23,2,94,2,,,,,319.80677499994636,320.80664739990607,320.80664739990607,320.80664739990607,320.80664739990607,320.80664739990607,321.80696639977396,321.80696639977396,c,1,0.832926600240171,None,14,001,2023-10-16_22h50.02.683,Lab experiment 4,2023.1.3,61.27841471765154,
-150,z,23,3,95,3,,,,,322.6573589001782,323.65785649977624,323.65785649977624,323.65785649977624,323.65785649977624,323.65785649977624,324.6586662000045,324.6586662000045,z,1,0.44124900037422776,None,14,001,2023-10-16_22h50.02.683,Lab experiment 4,2023.1.3,61.27841471765154,
-50,x,24,0,96,0,,,,,325.1254567001015,326.10916469991207,326.10916469991207,326.10916469991207,326.10916469991207,326.12583350017667,327.10898690018803,327.10898690018803,x,1,0.7041095998138189,None,14,001,2023-10-16_22h50.02.683,Lab experiment 4,2023.1.3,61.27841471765154,
150,v,24,1,97,1,,,,,327.84271960007027,328.84355650004,328.84355650004,328.84355650004,328.84355650004,328.84355650004,329.8265806999989,329.8265806999989,v,1,0.6967393001541495,None,14,001,2023-10-16_22h50.02.683,Lab experiment 4,2023.1.3,61.27841471765154,
50,c,24,2,98,2,,,,,330.5436328998767,331.5445471997373,331.5445471997373,331.5445471997373,331.5445471997373,331.5445471997373,332.5282641998492,332.5282641998492,c,1,0.7637403002008796,None,14,001,2023-10-16_22h50.02.683,Lab experiment 4,2023.1.3,61.27841471765154,
-150,z,24,3,99,3,,,,,333.3118913997896,334.3117169998586,334.3117169998586,334.3117169998586,334.3117169998586,334.3117169998586,335.3121898001991,335.3121898001991,z,1,0.5670895003713667,None,14,001,2023-10-16_22h50.02.683,Lab experiment 4,2023.1.3,61.27841471765154,
-50,x,25,0,100,0,,,,,335.8956259000115,336.8965823999606,336.8965823999606,336.8965823999606,336.8965823999606,336.8965823999606,337.8802841999568,337.8802841999568,x,1,0.39207200054079294,None,14,001,2023-10-16_22h50.02.683,Lab experiment 4,2023.1.3,61.27841471765154,
150,v,25,1,101,1,,,,,338.29711419995874,339.2971788998693,339.2971788998693,339.2971788998693,339.2971788998693,339.2971788998693,340.29786549974233,340.29786549974233,v,1,0.7492394004948437,None,14,001,2023-10-16_22h50.02.683,Lab experiment 4,2023.1.3,61.27841471765154,
50,c,25,2,102,2,,,,,341.0648274999112,342.0652077998966,342.0652077998966,342.0652077998966,342.0652077998966,342.0652077998966,343.0489066997543,343.0489066997543,c,1,0.644307800102979,None,14,001,2023-10-16_22h50.02.683,Lab experiment 4,2023.1.3,61.27841471765154,
-150,z,25,3,103,3,,,,,343.71582179982215,344.7155597000383,344.7155597000383,344.7155597000383,344.7155597000383,344.7155597000383,345.7160601997748,345.7160601997748,z,1,3.419374499935657,None,14,001,2023-10-16_22h50.02.683,Lab experiment 4,2023.1.3,61.27841471765154,
-50,x,26,0,104,0,,,,,349.1675807000138,350.16793469991535,350.16793469991535,350.16793469991535,350.16793469991535,350.16793469991535,351.16865020012483,351.16865020012483,x,1,3.4435334000736475,None,14,001,2023-10-16_22h50.02.683,Lab experiment 4,2023.1.3,61.27841471765154,
150,v,26,1,105,1,,,,,354.6366368997842,355.63701019994915,355.63701019994915,355.63701019994915,355.63701019994915,355.63701019994915,356.6373916999437,356.6373916999437,v,1,0.6799897002056241,None,14,001,2023-10-16_22h50.02.683,Lab experiment 4,2023.1.3,61.27841471765154,
50,c,26,2,106,2,,,,,357.3372697001323,358.33804209996015,358.33804209996015,358.33804209996015,358.33804209996015,358.33804209996015,359.3384094000794,359.3384094000794,v,0,3.1972619998268783,None,14,001,2023-10-16_22h50.02.683,Lab experiment 4,2023.1.3,61.27841471765154,
-150,z,26,3,107,3,,,,,362.556291999761,363.5566766001284,363.5566766001284,363.5566766001284,363.5566766001284,363.5566766001284,364.5397803001106,364.5397803001106,z,1,1.2940495000220835,None,14,001,2023-10-16_22h50.02.683,Lab experiment 4,2023.1.3,61.27841471765154,
-50,x,27,0,108,0,,,,,365.8575540999882,366.8407644997351,366.8407644997351,366.8407644997351,366.8407644997351,366.85792599990964,367.84163209982216,367.84163209982216,x,1,0.5811403999105096,None,14,001,2023-10-16_22h50.02.683,Lab experiment 4,2023.1.3,61.27841471765154,
150,v,27,1,109,1,,,,,368.44185779988766,369.4422398000024,369.4422398000024,369.4422398000024,369.4422398000024,369.4422398000024,370.42594490014017,370.42594490014017,v,1,0.6282466999255121,None,14,001,2023-10-16_22h50.02.683,Lab experiment 4,2023.1.3,61.27841471765154,
50,c,27,2,110,2,,,,,371.0758263999596,372.07591800019145,372.07591800019145,372.07591800019145,372.07591800019145,372.07591800019145,373.06027230015025,373.06027230015025,c,1,1.550484400242567,None,14,001,2023-10-16_22h50.02.683,Lab experiment 4,2023.1.3,61.27841471765154,
-150,z,27,3,111,3,,,,,374.62753299996257,375.6272303997539,375.6272303997539,375.6272303997539,375.6272303997539,375.6272303997539,376.62779409997165,376.62779409997165,z,1,2.442971100099385,None,14,001,2023-10-16_22h50.02.683,Lab experiment 4,2023.1.3,61.27841471765154,
-50,x,28,0,112,0,,,,,379.0958875999786,380.0962768997997,380.0962768997997,380.0962768997997,380.0962768997997,380.0962768997997,381.07948300009593,381.07948300009593,x,1,1.2626855000853539,None,14,001,2023-10-16_22h50.02.683,Lab experiment 4,2023.1.3,61.27841471765154,
150,v,28,1,113,1,,,,,382.3633237001486,383.3641781001352,383.3641781001352,383.3641781001352,383.3641781001352,383.3641781001352,384.34736139979213,384.34736139979213,v,1,0.8403730001300573,None,14,001,2023-10-16_22h50.02.683,Lab experiment 4,2023.1.3,61.27841471765154,
50,c,28,2,114,2,,,,,385.2148782000877,386.2152547999285,386.2152547999285,386.2152547999285,386.2152547999285,386.2152547999285,387.1989583000541,387.1989583000541,c,1,0.7199899000115693,None,14,001,2023-10-16_22h50.02.683,Lab experiment 4,2023.1.3,61.27841471765154,
-150,z,28,3,115,3,,,,,387.949247200042,388.9496204997413,388.9496204997413,388.9496204997413,388.9496204997413,388.9496204997413,389.9500071997754,389.9500071997754,z,1,2.919547200202942,None,14,001,2023-10-16_22h50.02.683,Lab experiment 4,2023.1.3,61.27841471765154,
-50,x,29,0,116,0,,,,,392.9011141001247,393.88482679985464,393.88482679985464,393.88482679985464,393.88482679985464,393.90103220008314,394.8852097000927,394.8852097000927,x,1,1.2159206001088023,None,14,001,2023-10-16_22h50.02.683,Lab experiment 4,2023.1.3,61.27841471765154,
150,v,29,1,117,1,,,,,396.11900650011376,397.1186401997693,397.1186401997693,397.1186401997693,397.1186401997693,397.1186401997693,398.1024099998176,398.1024099998176,v,1,1.1073823003098369,None,14,001,2023-10-16_22h50.02.683,Lab experiment 4,2023.1.3,61.27841471765154,
50,c,29,2,118,2,,,,,399.23685339977965,400.2366963997483,400.2366963997483,400.2366963997483,400.2366963997483,400.2366963997483,401.23687999974936,401.23687999974936,c,1,0.7136575002223253,None,14,001,2023-10-16_22h50.02.683,Lab experiment 4,2023.1.3,61.27841471765154,
-150,z,29,3,119,3,,,,,401.9712227000855,402.9710900001228,402.9710900001228,402.9710900001228,402.9710900001228,402.9710900001228,403.97145589999855,403.97145589999855,z,1,0.8100131000392139,None,14,001,2023-10-16_22h50.02.683,Lab experiment 4,2023.1.3,61.27841471765154,
-50,x,30,0,120,0,,,,,404.80562710016966,405.8058151998557,405.8058151998557,405.8058151998557,405.8058151998557,405.8058151998557,406.80638570012525,406.80638570012525,x,1,0.7106490000151098,None,14,001,2023-10-16_22h50.02.683,Lab experiment 4,2023.1.3,61.27841471765154,
150,v,30,1,121,1,,,,,407.5399960000068,408.54038259992376,408.54038259992376,408.54038259992376,408.54038259992376,408.54038259992376,409.52408149978146,409.52408149978146,v,1,0.5357098998501897,None,14,001,2023-10-16_22h50.02.683,Lab experiment 4,2023.1.3,61.27841471765154,
50,c,30,2,122,2,,,,,410.0909675001167,411.09134879987687,411.09134879987687,411.09134879987687,411.09134879987687,411.09134879987687,412.0750465001911,412.0750465001911,c,1,1.720468900166452,None,14,001,2023-10-16_22h50.02.683,Lab experiment 4,2023.1.3,61.27841471765154,
-150,z,30,3,123,3,,,,,413.824993299786,414.8254015999846,414.8254015999846,414.8254015999846,414.8254015999846,414.8254015999846,415.8264715997502,415.8264715997502,z,1,0.5249099005013704,None,14,001,2023-10-16_22h50.02.683,Lab experiment 4,2023.1.3,61.27841471765154,
-50,x,31,0,124,0,,,,,416.37667689984664,417.37705630017444,417.37705630017444,417.37705630017444,417.37705630017444,417.37705630017444,418.377431999892,418.377431999892,x,1,0.7271202998235822,None,14,001,2023-10-16_22h50.02.683,Lab experiment 4,2023.1.3,61.27841471765154,
150,v,31,1,125,1,,,,,419.1277152998373,420.11142680002376,420.11142680002376,420.11142680002376,420.11142680002376,420.12810479989275,421.11107649980113,421.11107649980113,v,1,1.5709510003216565,None,14,001,2023-10-16_22h50.02.683,Lab experiment 4,2023.1.3,61.27841471765154,
50,c,31,2,126,2,,,,,422.7121719000861,423.7127986997366,423.7127986997366,423.7127986997366,423.7127986997366,423.7127986997366,424.69649530015886,424.69649530015886,c,1,0.6337534999474883,None,14,001,2023-10-16_22h50.02.683,Lab experiment 4,2023.1.3,61.27841471765154,
-150,z,31,3,127,3,,,,,425.3629028997384,426.363214999903,426.363214999903,426.363214999903,426.363214999903,426.363214999903,427.34689879976213,427.34689879976213,z,1,0.5486926003359258,None,14,001,2023-10-16_22h50.02.683,Lab experiment 4,2023.1.3,61.27841471765154,
-50,x,32,0,128,0,,,,,427.9143762001768,428.9140916997567,428.9140916997567,428.9140916997567,428.9140916997567,428.9140916997567,429.91453790012747,429.91453790012747,x,1,2.1664513000287116,None,14,001,2023-10-16_22h50.02.683,Lab experiment 4,2023.1.3,61.27841471765154,
150,v,32,1,129,1,,,,,432.0986478999257,433.0989244999364,433.0989244999364,433.0989244999364,433.0989244999364,433.0989244999364,434.1000537001528,434.1000537001528,v,1,1.319343600422144,None,14,001,2023-10-16_22h50.02.683,Lab experiment 4,2023.1.3,61.27841471765154,
50,c,32,2,130,2,,,,,435.45000609988347,436.45027999999,436.45027999999,436.45027999999,436.45027999999,436.45027999999,437.43465099995956,437.43465099995956,c,1,0.8863925999030471,None,14,001,2023-10-16_22h50.02.683,Lab experiment 4,2023.1.3,61.27841471765154,
-150,z,32,3,131,3,,,,,438.35104520013556,439.3520519998856,439.3520519998856,439.3520519998856,439.3520519998856,439.3520519998856,440.3357596001588,440.3357596001588,z,1,1.1271958001889288,None,14,001,2023-10-16_22h50.02.683,Lab experiment 4,2023.1.3,61.27841471765154,
-50,x,33,0,132,0,,,,,441.48559579998255,442.48594729974866,442.48594729974866,442.48594729974866,442.48594729974866,442.48594729974866,443.4702714998275,443.4702714998275,x,1,0.6822660001926124,None,14,001,2023-10-16_22h50.02.683,Lab experiment 4,2023.1.3,61.27841471765154,
150,v,33,1,133,1,,,,,444.1700051999651,445.17036580014974,445.17036580014974,445.17036580014974,445.17036580014974,445.17036580014974,446.17129410011694,446.17129410011694,v,1,2.252963200211525,None,14,001,2023-10-16_22h50.02.683,Lab experiment 4,2023.1.3,61.27841471765154,
50,c,33,2,134,2,,,,,448.45549129974097,449.45549120008945,449.45549120008945,449.45549120008945,449.45549120008945,449.45549120008945,450.45624999981374,450.45624999981374,c,1,1.0954156001098454,None,14,001,2023-10-16_22h50.02.683,Lab experiment 4,2023.1.3,61.27841471765154,
-150,z,33,3,135,3,,,,,451.57282460015267,452.57323990017176,452.57323990017176,452.57323990017176,452.57323990017176,452.57323990017176,453.57409409992397,453.57409409992397,z,1,0.8679864001460373,None,14,001,2023-10-16_22h50.02.683,Lab experiment 4,2023.1.3,61.27841471765154,
-50,x,34,0,136,0,,,,,454.4744389997795,455.45754780014977,455.45754780014977,455.45754780014977,455.45754780014977,455.47411919990554,456.45802700007334,456.45802700007334,x,1,0.5230060000903904,None,14,001,2023-10-16_22h50.02.683,Lab experiment 4,2023.1.3,61.27841471765154,
150,v,34,1,137,1,,,,,457.0087383999489,458.0084620998241,458.0084620998241,458.0084620998241,458.0084620998241,458.0084620998241,459.0094920997508,459.0094920997508,v,1,0.855761700309813,None,14,001,2023-10-16_22h50.02.683,Lab experiment 4,2023.1.3,61.27841471765154,
50,c,34,2,138,2,,,,,459.8931554001756,460.89292010013014,460.89292010013014,460.89292010013014,460.89292010013014,460.89292010013014,461.87668049987406,461.87668049987406,c,1,0.4511255002580583,None,14,001,2023-10-16_22h50.02.683,Lab experiment 4,2023.1.3,61.27841471765154,
-150,z,34,3,139,3,,,,,462.3605657001026,463.3611507001333,463.3611507001333,463.3611507001333,463.3611507001333,463.3611507001333,464.3615116998553,464.3615116998553,z,1,0.8699206002056599,None,14,001,2023-10-16_22h50.02.683,Lab experiment 4,2023.1.3,61.27841471765154,
-50,x,35,0,140,0,,,,,465.2618526997976,466.26168080000207,466.26168080000207,466.26168080000207,466.26168080000207,466.26168080000207,467.26261459989473,467.26261459989473,x,1,0.8284522001631558,None,14,001,2023-10-16_22h50.02.683,Lab experiment 4,2023.1.3,61.27841471765154,
150,v,35,1,141,1,,,,,468.11293860012665,469.0966488998383,469.0966488998383,469.0966488998383,469.0966488998383,469.1133155999705,470.0970235997811,470.0970235997811,v,1,1.9841400003060699,None,14,001,2023-10-16_22h50.02.683,Lab experiment 4,2023.1.3,61.27841471765154,
50,c,35,2,142,2,,,,,472.11444849986583,473.0981527999975,473.0981527999975,473.0981527999975,473.0981527999975,473.1148303998634,474.0985391000286,474.0985391000286,c,1,0.7000410999171436,None,14,001,2023-10-16_22h50.02.683,Lab experiment 4,2023.1.3,61.27841471765154,
-150,z,35,3,143,3,,,,,474.83215209981427,475.8325256998651,475.8325256998651,475.8325256998651,475.8325256998651,475.8325256998651,476.81623139977455,476.81623139977455,z,1,0.7912246999330819,None,14,001,2023-10-16_22h50.02.683,Lab experiment 4,2023.1.3,61.27841471765154,
-50,x,36,0,144,0,,,,,477.6326322001405,478.6335666999221,478.6335666999221,478.6335666999221,478.6335666999221,478.6335666999221,479.61729020019993,479.61729020019993,x,1,0.6041175001300871,None,14,001,2023-10-16_22h50.02.683,Lab experiment 4,2023.1.3,61.27841471765154,
150,v,36,1,145,1,,,,,480.2502223001793,481.2512476001866,481.2512476001866,481.2512476001866,481.2512476001866,481.2512476001866,482.23495130008087,482.23495130008087,v,1,0.8505134000442922,None,14,001,2023-10-16_22h50.02.683,Lab experiment 4,2023.1.3,61.27841471765154,
50,c,36,2,146,2,,,,,483.1019409997389,484.1023230999708,484.1023230999708,484.1023230999708,484.1023230999708,484.1023230999708,485.10212629986927,485.10212629986927,c,1,0.6309742000885308,None,14,001,2023-10-16_22h50.02.683,Lab experiment 4,2023.1.3,61.27841471765154,
-150,z,36,3,147,3,,,,,485.752951500006,486.7528980001807,486.7528980001807,486.7528980001807,486.7528980001807,486.7528980001807,487.7530161999166,487.7530161999166,z,1,1.044783900026232,None,14,001,2023-10-16_22h50.02.683,Lab experiment 4,2023.1.3,61.27841471765154,
-50,x,37,0,148,0,,,,,488.8203623997979,489.8211666001007,489.8211666001007,489.8211666001007,489.8211666001007,489.8211666001007,490.8048670999706,490.8048670999706,x,1,0.7235225001350045,None,14,001,2023-10-16_22h50.02.683,Lab experiment 4,2023.1.3,61.27841471765154,
150,v,37,1,149,1,,,,,491.5551458001137,492.53885619994253,492.53885619994253,492.53885619994253,492.53885619994253,492.5555430999957,493.5392374000512,493.5392374000512,v,1,2.0303615001030266,None,14,001,2023-10-16_22h50.02.683,Lab experiment 4,2023.1.3,61.27841471765154,
50,c,37,2,150,2,,,,,495.58931449986994,496.5898409001529,496.5898409001529,496.5898409001529,496.5898409001529,496.5898409001529,497.5907658999786,497.5907658999786,c,1,1.3335938001982868,None,14,001,2023-10-16_22h50.02.683,Lab experiment 4,2023.1.3,61.27841471765154,
-150,z,37,3,151,3,,,,,498.9412770001218,499.94165319995955,499.94165319995955,499.94165319995955,499.94165319995955,499.94165319995955,500.92537860013545,500.92537860013545,z,1,0.8526256000623107,None,14,001,2023-10-16_22h50.02.683,Lab experiment 4,2023.1.3,61.27841471765154,
-50,x,38,0,152,0,,,,,501.8082996001467,502.8089203997515,502.8089203997515,502.8089203997515,502.8089203997515,502.8089203997515,503.8097827001475,503.8097827001475,x,1,0.7366089001297951,None,14,001,2023-10-16_22h50.02.683,Lab experiment 4,2023.1.3,61.27841471765154,
150,v,38,1,153,1,,,,,504.57674839999527,505.5597366001457,505.5597366001457,505.5597366001457,505.5597366001457,505.57712949998677,506.5601830999367,506.5601830999367,v,1,0.5841081002727151,None,14,001,2023-10-16_22h50.02.683,Lab experiment 4,2023.1.3,61.27841471765154,
50,c,38,2,154,2,,,,,507.1610620999709,508.16086359973997,508.16086359973997,508.16086359973997,508.16086359973997,508.16086359973997,509.1618122998625,509.1618122998625,c,1,0.6243094000965357,None,14,001,2023-10-16_22h50.02.683,Lab experiment 4,2023.1.3,61.27841471765154,
-150,z,38,3,155,3,,,,,509.8115793997422,510.81244690017775,510.81244690017775,510.81244690017775,510.81244690017775,510.81244690017775,511.81281840009615,511.81281840009615,z,1,0.8794678002595901,None,14,001,2023-10-16_22h50.02.683,Lab experiment 4,2023.1.3,61.27841471765154,
-50,x,39,0,156,0,,,,,512.7125909999013,513.7127799000591,513.7127799000591,513.7127799000591,513.7127799000591,513.7127799000591,514.6966538000852,514.6966538000852,x,1,0.9240096001885831,None,14,001,2023-10-16_22h50.02.683,Lab experiment 4,2023.1.3,61.27841471765154,
150,v,39,1,157,1,,,,,515.6470614001155,516.6479976000264,516.6479976000264,516.6479976000264,516.6479976000264,516.6479976000264,517.6316889999434,517.6316889999434,v,1,1.0679923999123275,None,14,001,2023-10-16_22h50.02.683,Lab experiment 4,2023.1.3,61.27841471765154,
50,c,39,2,158,2,,,,,518.7315587000921,519.7319816998206,519.7319816998206,519.7319816998206,519.7319816998206,519.7319816998206,520.7328646001406,520.7328646001406,c,1,0.5857265004888177,None,14,001,2023-10-16_22h50.02.683,Lab experiment 4,2023.1.3,61.27841471765154,
-150,z,39,3,159,3,,,,,521.3490090998821,522.3495904998854,522.3495904998854,522.3495904998854,522.3495904998854,522.3495904998854,523.3503331998363,523.3503331998363,z,1,0.8541339999064803,None,14,001,2023-10-16_22h50.02.683,Lab experiment 4,2023.1.3,61.27841471765154,
-50,x,40,0,160,0,,,,,524.2341927001253,525.217901499942,525.217901499942,525.217901499942,525.217901499942,525.234567400068,526.2182720000856,526.2182720000856,x,1,0.5082355001941323,None,14,001,2023-10-16_22h50.02.683,Lab experiment 4,2023.1.3,61.27841471765154,
150,v,40,1,161,1,,,,,526.751254899893,527.7521776999347,527.7521776999347,527.7521776999347,527.7521776999347,527.7521776999347,528.7358948001638,528.7358948001638,v,1,1.0146842002868652,None,14,001,2023-10-16_22h50.02.683,Lab experiment 4,2023.1.3,61.27841471765154,
50,c,40,2,162,2,,,,,529.7691748999059,530.7533219000325,530.7533219000325,530.7533219000325,530.7533219000325,530.769992900081,531.753701500129,531.753701500129,c,1,0.549178599845618,None,14,001,2023-10-16_22h50.02.683,Lab experiment 4,2023.1.3,61.27841471765154,
-150,z,40,3,163,3,,,,,532.3205792000517,533.3042934997939,533.3042934997939,533.3042934997939,533.3042934997939,533.3203551997431,534.3041436001658,534.3041436001658,z,1,0.6011655000038445,None,14,001,2023-10-16_22h50.02.683,Lab experiment 4,2023.1.3,61.27841471765154,
-50,x,41,0,164,0,,,,,534.9382397998124,535.9219450000674,535.9219450000674,535.9219450000674,535.9219450000674,535.9380803997628,536.9221191001125,536.9221191001125,x,1,0.4503394002094865,None,14,001,2023-10-16_22h50.02.683,Lab experiment 4,2023.1.3,61.27841471765154,
150,v,41,1,165,1,,,,,537.389169999864,538.3890450000763,538.3890450000763,538.3890450000763,538.3890450000763,538.3890450000763,539.3892334997654,539.3892334997654,v,1,0.7526750997640193,None,14,001,2023-10-16_22h50.02.683,Lab experiment 4,2023.1.3,61.27841471765154,
50,c,41,2,166,2,,,,,540.1734686000273,541.1739436998032,541.1739436998032,541.1739436998032,541.1739436998032,541.1739436998032,542.1576404999942,542.1576404999942,c,1,0.563472100533545,None,14,001,2023-10-16_22h50.02.683,Lab experiment 4,2023.1.3,61.27841471765154,
-150,z,41,3,167,3,,,,,542.7411918998696,543.7408544998616,543.7408544998616,543.7408544998616,543.7408544998616,543.7408544998616,544.7419528998435,544.7419528998435,z,1,0.6077390997670591,None,14,001,2023-10-16_22h50.02.683,Lab experiment 4,2023.1.3,61.27841471765154,
-50,x,42,0,168,0,,,,,545.3750452999957,546.3755417000502,546.3755417000502,546.3755417000502,546.3755417000502,546.3755417000502,547.3596181999892,547.3596181999892,x,1,0.7271357998251915,None,14,001,2023-10-16_22h50.02.683,Lab experiment 4,2023.1.3,61.27841471765154,
150,v,42,1,169,1,,,,,548.1094097997993,549.1101405001245,549.1101405001245,549.1101405001245,549.1101405001245,549.1101405001245,550.1106569999829,550.1106569999829,v,1,0.9006695002317429,None,14,001,2023-10-16_22h50.02.683,Lab experiment 4,2023.1.3,61.27841471765154,
50,c,42,2,170,2,,,,,551.0437948000617,552.0447196001187,552.0447196001187,552.0447196001187,552.0447196001187,552.0447196001187,553.0284180999734,553.0284180999734,c,1,0.43494930025190115,None,14,001,2023-10-16_22h50.02.683,Lab experiment 4,2023.1.3,61.27841471765154,
-150,z,42,3,171,3,,,,,553.4952750997618,554.4789920998737,554.4789920998737,554.4789920998737,554.4789920998737,554.4956530998461,555.4789117001928,555.4789117001928,x,0,0.42281770007684827,None,14,001,2023-10-16_22h50.02.683,Lab experiment 4,2023.1.3,61.27841471765154,
-50,x,43,0,172,0,,,,,555.9295260999352,556.9299058998004,556.9299058998004,556.9299058998004,556.9299058998004,556.9299058998004,557.9299829001538,557.9299829001538,x,1,0.7208144003525376,None,14,001,2023-10-16_22h50.02.683,Lab experiment 4,2023.1.3,61.27841471765154,
150,v,43,1,173,1,,,,,558.6805631997995,559.6805250998586,559.6805250998586,559.6805250998586,559.6805250998586,559.6805250998586,560.6807447997853,560.6807447997853,v,1,1.1202274998649955,None,14,001,2023-10-16_22h50.02.683,Lab experiment 4,2023.1.3,61.27841471765154,
50,c,43,2,174,2,,,,,561.8311032997444,562.8321442999877,562.8321442999877,562.8321442999877,562.8321442999877,562.8321442999877,563.8325159000233,563.8325159000233,c,1,1.4452208001166582,None,14,001,2023-10-16_22h50.02.683,Lab experiment 4,2023.1.3,61.27841471765154,
-150,z,43,3,175,3,,,,,565.2991661000997,566.2996263001114,566.2996263001114,566.2996263001114,566.2996263001114,566.2996263001114,567.3004982001148,567.3004982001148,z,1,0.5923681003041565,None,14,001,2023-10-16_22h50.02.683,Lab experiment 4,2023.1.3,61.27841471765154,
-50,x,44,0,176,0,,,,,567.9173968001269,568.9174411999993,568.9174411999993,568.9174411999993,568.9174411999993,568.9174411999993,569.9181527998298,569.9181527998298,x,1,0.5980959003791213,None,14,001,2023-10-16_22h50.02.683,Lab experiment 4,2023.1.3,61.27841471765154,
150,v,44,1,177,1,,,,,570.5348982000723,571.5349733000621,571.5349733000621,571.5349733000621,571.5349733000621,571.5349733000621,572.5358174997382,572.5358174997382,v,1,0.5505758002400398,None,14,001,2023-10-16_22h50.02.683,Lab experiment 4,2023.1.3,61.27841471765154,
50,c,44,2,178,2,,,,,573.1193741997704,574.1197513001971,574.1197513001971,574.1197513001971,574.1197513001971,574.1197513001971,575.1033219001256,575.1033219001256,c,1,1.0355327003635466,None,14,001,2023-10-16_22h50.02.683,Lab experiment 4,2023.1.3,61.27841471765154,
-150,z,44,3,179,3,,,,,576.1698670000769,577.1705557000823,577.1705557000823,577.1705557000823,577.1705557000823,577.1705557000823,578.1539584998973,578.1539584998973,z,1,0.8643545000813901,None,14,001,2023-10-16_22h50.02.683,Lab experiment 4,2023.1.3,61.27841471765154,
-50,x,45,0,180,0,,,,,579.0377941001207,580.0380808999762,580.0380808999762,580.0380808999762,580.0380808999762,580.0380808999762,581.0386133999564,581.0386133999564,x,1,0.828320300206542,None,14,001,2023-10-16_22h50.02.683,Lab experiment 4,2023.1.3,61.27841471765154,
150,v,45,1,181,1,,,,,581.888955200091,582.8897381997667,582.8897381997667,582.8897381997667,582.8897381997667,582.8897381997667,583.8734964001924,583.8734964001924,v,1,0.9136724001727998,None,14,001,2023-10-16_22h50.02.683,Lab experiment 4,2023.1.3,61.27841471765154,
50,c,45,2,182,2,,,,,584.8071292000823,585.807513399981,585.807513399981,585.807513399981,585.807513399981,585.807513399981,586.7912129000761,586.7912129000761,c,1,0.9507614001631737,None,14,001,2023-10-16_22h50.02.683,Lab experiment 4,2023.1.3,61.27841471765154,
-150,z,45,3,183,3,,,,,587.7746803001501,588.774912700057,588.774912700057,588.774912700057,588.774912700057,588.774912700057,589.775682900101,589.775682900101,z,1,0.8930238001048565,None,14,001,2023-10-16_22h50.02.683,Lab experiment 4,2023.1.3,61.27841471765154,
-50,x,46,0,184,0,,,,,590.6926838997751,591.6924376999959,591.6924376999959,591.6924376999959,591.6924376999959,591.6924376999959,592.693444499746,592.693444499746,x,1,0.717008899897337,None,14,001,2023-10-16_22h50.02.683,Lab experiment 4,2023.1.3,61.27841471765154,
150,v,46,1,185,1,,,,,593.4263363000937,594.4269992001355,594.4269992001355,594.4269992001355,594.4269992001355,594.4269992001355,595.427809199784,595.427809199784,v,1,0.497611700091511,None,14,001,2023-10-16_22h50.02.683,Lab experiment 4,2023.1.3,61.27841471765154,
50,c,46,2,186,2,,,,,595.9446745999157,596.9444846999831,596.9444846999831,596.9444846999831,596.9444846999831,596.9444846999831,597.94543660013,597.94543660013,c,1,0.4716284996829927,None,14,001,2023-10-16_22h50.02.683,Lab experiment 4,2023.1.3,61.27841471765154,
-150,z,46,3,187,3,,,,,598.4456182997674,599.4460021997802,599.4460021997802,599.4460021997802,599.4460021997802,599.4460021997802,600.4463805998676,600.4463805998676,z,1,0.4980550999753177,None,14,001,2023-10-16_22h50.02.683,Lab experiment 4,2023.1.3,61.27841471765154,
-50,x,47,0,188,0,,,,,600.9632524000481,601.9636237998493,601.9636237998493,601.9636237998493,601.9636237998493,601.9636237998493,602.9634511000477,602.9634511000477,x,1,0.8427468002773821,None,14,001,2023-10-16_22h50.02.683,Lab experiment 4,2023.1.3,61.27841471765154,
150,v,47,1,189,1,,,,,603.8304714001715,604.8312050001696,604.8312050001696,604.8312050001696,604.8312050001696,604.8312050001696,605.83174399985,605.83174399985,v,1,0.766715900041163,None,14,001,2023-10-16_22h50.02.683,Lab experiment 4,2023.1.3,61.27841471765154,
50,c,47,2,190,2,,,,,606.6153918001801,607.6153442999348,607.6153442999348,607.6153442999348,607.6153442999348,607.6153442999348,608.6154561000876,608.6154561000876,c,1,1.5476755001582205,None,14,001,2023-10-16_22h50.02.683,Lab experiment 4,2023.1.3,61.27841471765154,
-150,z,47,3,191,3,,,,,610.1834057001397,611.1671111001633,611.1671111001633,611.1671111001633,611.1671111001633,611.1837814999744,612.1674866997637,612.1674866997637,z,1,0.6683247000910342,None,14,001,2023-10-16_22h50.02.683,Lab experiment 4,2023.1.3,61.27841471765154,
-50,x,48,0,192,0,,,,,612.8673767000437,613.868130300194,613.868130300194,613.868130300194,613.868130300194,613.868130300194,614.8685142998584,614.8685142998584,x,1,0.7501692003570497,None,14,001,2023-10-16_22h50.02.683,Lab experiment 4,2023.1.3,61.27841471765154,
150,v,48,1,193,1,,,,,615.6354650999419,616.6353068999015,616.6353068999015,616.6353068999015,616.6353068999015,616.6353068999015,617.6188447000459,617.6188447000459,v,1,0.5598053000867367,None,14,001,2023-10-16_22h50.02.683,Lab experiment 4,2023.1.3,61.27841471765154,
50,c,48,2,194,2,,,,,618.2025160999037,619.2031817999668,619.2031817999668,619.2031817999668,619.2031817999668,619.2031817999668,620.2038594000041,620.2038594000041,c,1,0.6949861003085971,None,14,001,2023-10-16_22h50.02.683,Lab experiment 4,2023.1.3,61.27841471765154,
-150,z,48,3,195,3,,,,,620.920350600034,621.920705200173,621.920705200173,621.920705200173,621.920705200173,621.920705200173,622.9215576997958,622.9215576997958,z,1,0.8820679001510143,None,14,001,2023-10-16_22h50.02.683,Lab experiment 4,2023.1.3,61.27841471765154,
-50,x,49,0,196,0,,,,,623.8219031998888,624.8216099999845,624.8216099999845,624.8216099999845,624.8216099999845,624.8216099999845,625.8226565001532,625.8226565001532,x,1,0.8778753001242876,None,14,001,2023-10-16_22h50.02.683,Lab experiment 4,2023.1.3,61.27841471765154,
150,v,49,1,197,1,,,,,626.7230038000271,627.7229634001851,627.7229634001851,627.7229634001851,627.7229634001851,627.7229634001851,628.7233294998296,628.7233294998296,v,1,0.9104410000145435,None,14,001,2023-10-16_22h50.02.683,Lab experiment 4,2023.1.3,61.27841471765154,
50,c,49,2,198,2,,,,,629.656907599885,630.6578266997822,630.6578266997822,630.6578266997822,630.6578266997822,630.6578266997822,631.6582128000446,631.6582128000446,c,1,0.6349419001489878,None,14,001,2023-10-16_22h50.02.683,Lab experiment 4,2023.1.3,61.27841471765154,
-150,z,49,3,199,3,,,,,632.3246434000321,633.3255043001845,633.3255043001845,633.3255043001845,633.3255043001845,633.3255043001845,634.3092005001381,634.3092005001381,z,1,0.7111211000010371,None,14,001,2023-10-16_22h50.02.683,Lab experiment 4,2023.1.3,61.27841471765154,
150,v,,,,,0,0,0,1,635.0423169997521,636.0431948998012,636.0431948998012,636.0431948998012,636.0431948998012,636.0431948998012,637.0263422001153,637.0263422001153,v,1,0.8454963001422584,None,14,001,2023-10-16_22h50.02.683,Lab experiment 4,2023.1.3,61.27841471765154,
-150,z,,,,,0,1,1,3,637.8938959999941,638.8936617998406,638.8936617998406,638.8936617998406,638.8936617998406,638.8936617998406,639.8940444001928,639.8940444001928,z,1,0.5853571002371609,None,14,001,2023-10-16_22h50.02.683,Lab experiment 4,2023.1.3,61.27841471765154,
50,c,,,,,0,2,2,2,640.511563600041,641.5119348000735,641.5119348000735,641.5119348000735,641.5119348000735,641.5119348000735,642.5116840000264,642.5116840000264,c,1,0.6342360000126064,None,14,001,2023-10-16_22h50.02.683,Lab experiment 4,2023.1.3,61.27841471765154,
-150,z,,,,,0,3,3,3,643.1618458000012,644.1624758997932,644.1624758997932,644.1624758997932,644.1624758997932,644.1624758997932,645.1628620000556,645.1628620000556,z,1,0.5555233000777662,None,14,001,2023-10-16_22h50.02.683,Lab experiment 4,2023.1.3,61.27841471765154,
-150,z,,,,,1,0,4,3,645.7468766001984,646.7472525998019,646.7472525998019,646.7472525998019,646.7472525998019,646.7472525998019,647.7309542000294,647.7309542000294,z,1,0.830674999859184,None,14,001,2023-10-16_22h50.02.683,Lab experiment 4,2023.1.3,61.27841471765154,
150,v,,,,,1,1,5,1,648.581278800033,649.5816592001356,649.5816592001356,649.5816592001356,649.5816592001356,649.5816592001356,650.5647816001438,650.5647816001438,v,1,1.0194462998770177,None,14,001,2023-10-16_22h50.02.683,Lab experiment 4,2023.1.3,61.27841471765154,
50,c,,,,,1,2,6,2,651.6150432997383,652.6155298999511,652.6155298999511,652.6155298999511,652.6155298999511,652.6155298999511,653.6165164997801,653.6165164997801,x,0,0.3336225003004074,None,14,001,2023-10-16_22h50.02.683,Lab experiment 4,2023.1.3,61.27841471765154,
-150,z,,,,,1,3,7,3,653.9666415997781,654.9665771997534,654.9665771997534,654.9665771997534,654.9665771997534,654.9665771997534,655.9674089998007,655.9674089998007,z,1,0.46724249981343746,None,14,001,2023-10-16_22h50.02.683,Lab experiment 4,2023.1.3,61.27841471765154,
-50,x,,,,,2,0,8,0,656.4505757000297,657.4506759997457,657.4506759997457,657.4506759997457,657.4506759997457,657.4506759997457,658.4512428999878,658.4512428999878,x,1,0.766904900316149,None,14,001,2023-10-16_22h50.02.683,Lab experiment 4,2023.1.3,61.27841471765154,
-150,z,,,,,2,1,9,3,659.2349001001567,660.2352748000994,660.2352748000994,660.2352748000994,660.2352748000994,660.2352748000994,661.2360744997859,661.2360744997859,z,1,0.5841876002959907,None,14,001,2023-10-16_22h50.02.683,Lab experiment 4,2023.1.3,61.27841471765154,
-150,z,,,,,2,2,10,3,661.8529711998999,662.852770099882,662.852770099882,662.852770099882,662.852770099882,662.852770099882,663.8537244000472,663.8537244000472,z,1,0.5497388001531363,None,14,001,2023-10-16_22h50.02.683,Lab experiment 4,2023.1.3,61.27841471765154,
-150,z,,,,,2,3,11,3,664.4200059999712,665.4209949998185,665.4209949998185,665.4209949998185,665.4209949998185,665.4209949998185,666.4046911997721,666.4046911997721,z,1,0.42986329970881343,None,14,001,2023-10-16_22h50.02.683,Lab experiment 4,2023.1.3,61.27841471765154,
-150,z,,,,,3,0,12,3,666.854234999977,667.8552330997773,667.8552330997773,667.8552330997773,667.8552330997773,667.8552330997773,668.8385558999144,668.8385558999144,z,1,0.44039499992504716,None,14,001,2023-10-16_22h50.02.683,Lab experiment 4,2023.1.3,61.27841471765154,
150,v,,,,,3,1,13,1,669.3053787997924,670.2895030998625,670.2895030998625,670.2895030998625,670.2895030998625,670.3062418000773,671.2893865997903,671.2893865997903,v,1,0.9946563001722097,None,14,001,2023-10-16_22h50.02.683,Lab experiment 4,2023.1.3,61.27841471765154,
-50,x,,,,,3,2,14,0,672.3069283999503,673.3073006998748,673.3073006998748,673.3073006998748,673.3073006998748,673.3073006998748,674.291012799833,674.291012799833,x,1,0.7499055000953376,None,14,001,2023-10-16_22h50.02.683,Lab experiment 4,2023.1.3,61.27841471765154,
150,v,,,,,3,3,15,1,675.0579638998024,676.0577803999186,676.0577803999186,676.0577803999186,676.0577803999186,676.0577803999186,677.0587296001613,677.0587296001613,v,1,0.600817000027746,None,14,001,2023-10-16_22h50.02.683,Lab experiment 4,2023.1.3,61.27841471765154,
50,c,,,,,4,0,16,2,677.6918061999604,678.6921863998286,678.6921863998286,678.6921863998286,678.6921863998286,678.6921863998286,679.6930658998899,679.6930658998899,c,1,0.9296595002524555,None,14,001,2023-10-16_22h50.02.683,Lab experiment 4,2023.1.3,61.27841471765154,
50,c,,,,,4,1,17,2,680.642928100191,681.6438023997471,681.6438023997471,681.6438023997471,681.6438023997471,681.6438023997471,682.6274978998117,682.6274978998117,c,1,0.6560248997993767,None,14,001,2023-10-16_22h50.02.683,Lab experiment 4,2023.1.3,61.27841471765154,
150,v,,,,,4,2,18,1,683.3110890998505,684.3109026998281,684.3109026998281,684.3109026998281,684.3109026998281,684.3109026998281,685.3114173999056,685.3114173999056,v,1,0.5481326002627611,None,14,001,2023-10-16_22h50.02.683,Lab experiment 4,2023.1.3,61.27841471765154,
150,v,,,,,4,3,19,1,685.8782055000775,686.8791124001145,686.8791124001145,686.8791124001145,686.8791124001145,686.8791124001145,687.8628135998733,687.8628135998733,v,1,0.42437499994412065,None,14,001,2023-10-16_22h50.02.683,Lab experiment 4,2023.1.3,61.27841471765154,
-150,z,,,,,5,0,20,3,688.3130068001337,689.313371699769,689.313371699769,689.313371699769,689.313371699769,689.313371699769,690.297071099747,690.297071099747,z,1,1.1181196998804808,None,14,001,2023-10-16_22h50.02.683,Lab experiment 4,2023.1.3,61.27841471765154,
150,v,,,,,5,1,21,1,691.4475051001646,692.4478918998502,692.4478918998502,692.4478918998502,692.4478918998502,692.4478918998502,693.4315911000594,693.4315911000594,v,1,0.4947110000066459,None,14,001,2023-10-16_22h50.02.683,Lab experiment 4,2023.1.3,61.27841471765154,
50,c,,,,,5,2,22,2,693.9479581001215,694.9488431997597,694.9488431997597,694.9488431997597,694.9488431997597,694.9488431997597,695.9325500000268,695.9325500000268,c,1,2.0315879001282156,None,14,001,2023-10-16_22h50.02.683,Lab experiment 4,2023.1.3,61.27841471765154,
-50,x,,,,,5,3,23,0,697.9833164997399,698.983209699858,698.983209699858,698.983209699858,698.983209699858,698.983209699858,699.9840751001611,699.9840751001611,x,1,3.108717200346291,None,14,001,2023-10-16_22h50.02.683,Lab experiment 4,2023.1.3,61.27841471765154,
-150,z,,,,,6,0,24,3,703.117979099974,704.1189755001105,704.1189755001105,704.1189755001105,704.1189755001105,704.1189755001105,705.1022508000024,705.1022508000024,z,1,0.7011174000799656,None,14,001,2023-10-16_22h50.02.683,Lab experiment 4,2023.1.3,61.27841471765154,
-50,x,,,,,6,1,25,0,705.8356063999236,706.8361987997778,706.8361987997778,706.8361987997778,706.8361987997778,706.8361987997778,707.8203737000003,707.8203737000003,x,1,0.7171650999225676,None,14,001,2023-10-16_22h50.02.683,Lab experiment 4,2023.1.3,61.27841471765154,
150,v,,,,,6,2,26,1,708.5706549999304,709.5537886000238,709.5537886000238,709.5537886000238,709.5537886000238,709.5710387001745,710.5547445998527,710.5547445998527,v,1,0.6166647998616099,None,14,001,2023-10-16_22h50.02.683,Lab experiment 4,2023.1.3,61.27841471765154,
150,v,,,,,6,3,27,1,711.2049918998964,712.2053911997937,712.2053911997937,712.2053911997937,712.2053911997937,712.2053911997937,713.205225400161,713.205225400161,v,1,0.4956871001049876,None,14,001,2023-10-16_22h50.02.683,Lab experiment 4,2023.1.3,61.27841471765154,
50,c,,,,,7,0,28,2,713.7226293999702,714.723080100026,714.723080100026,714.723080100026,714.723080100026,714.723080100026,715.7229165998287,715.7229165998287,c,1,0.6213051001541317,None,14,001,2023-10-16_22h50.02.683,Lab experiment 4,2023.1.3,61.27841471765154,
-50,x,,,,,7,1,29,0,716.373618000187,717.3740000999533,717.3740000999533,717.3740000999533,717.3740000999533,717.3740000999533,718.3572762999684,718.3572762999684,x,1,0.4183855000883341,None,14,001,2023-10-16_22h50.02.683,Lab experiment 4,2023.1.3,61.27841471765154,
150,v,,,,,7,2,30,1,718.8072445997968,719.8076050998643,719.8076050998643,719.8076050998643,719.8076050998643,719.8076050998643,720.8080847999081,720.8080847999081,v,1,0.4118021000176668,None,14,001,2023-10-16_22h50.02.683,Lab experiment 4,2023.1.3,61.27841471765154,
150,v,,,,,7,3,31,1,721.2421351000667,722.2420202000067,722.2420202000067,722.2420202000067,722.2420202000067,722.2420202000067,723.2423133999109,723.2423133999109,v,1,0.36425149999558926,None,14,001,2023-10-16_22h50.02.683,Lab experiment 4,2023.1.3,61.27841471765154,
-150,z,,,,,8,0,32,3,723.6258208001964,724.6267357999459,724.6267357999459,724.6267357999459,724.6267357999459,724.6267357999459,725.6104457997717,725.6104457997717,x,0,1.6142417001537979,None,14,001,2023-10-16_22h50.02.683,Lab experiment 4,2023.1.3,61.27841471765154,
50,c,,,,,8,1,33,2,727.2443141997792,728.2447795998305,728.2447795998305,728.2447795998305,728.2447795998305,728.2447795998305,729.2284833998419,729.2284833998419,c,1,0.9713645000010729,None,14,001,2023-10-16_22h50.02.683,Lab experiment 4,2023.1.3,61.27841471765154,
150,v,,,,,8,2,34,1,730.228386899922,731.2287317998707,731.2287317998707,731.2287317998707,731.2287317998707,731.2287317998707,732.2296253000386,732.2296253000386,v,1,0.42854030011221766,None,14,001,2023-10-16_22h50.02.683,Lab experiment 4,2023.1.3,61.27841471765154,
150,v,,,,,8,3,35,1,732.6797909000888,733.6801799000241,733.6801799000241,733.6801799000241,733.6801799000241,733.6801799000241,734.6638786001131,734.6638786001131,v,1,0.629961600061506,None,14,001,2023-10-16_22h50.02.683,Lab experiment 4,2023.1.3,61.27841471765154,
-150,z,,,,,9,0,36,3,735.3141164998524,736.3144994000904,736.3144994000904,736.3144994000904,736.3144994000904,736.3144994000904,737.2982068001293,737.2982068001293,z,1,1.3254574998281896,None,14,001,2023-10-16_22h50.02.683,Lab experiment 4,2023.1.3,61.27841471765154,
-150,z,,,,,9,1,37,3,738.6487110001035,739.6483410000801,739.6483410000801,739.6483410000801,739.6483410000801,739.6483410000801,740.6489388998598,740.6489388998598,z,1,0.8520960002206266,None,14,001,2023-10-16_22h50.02.683,Lab experiment 4,2023.1.3,61.27841471765154,
150,v,,,,,9,2,38,1,741.5331446998753,742.5168488998897,742.5168488998897,742.5168488998897,742.5168488998897,742.5335197001696,743.5172266997397,743.5172266997397,v,1,0.4540094002149999,None,14,001,2023-10-16_22h50.02.683,Lab experiment 4,2023.1.3,61.27841471765154,
150,v,,,,,9,3,39,1,744.0007433998398,745.0005938997492,745.0005938997492,745.0005938997492,745.0005938997492,745.0005938997492,746.0015015001409,746.0015015001409,v,1,0.446110799908638,None,14,001,2023-10-16_22h50.02.683,Lab experiment 4,2023.1.3,61.27841471765154,
-150,z,,,,,10,0,40,3,746.4677260997705,747.4687292999588,747.4687292999588,747.4687292999588,747.4687292999588,747.4687292999588,748.4525346998125,748.4525346998125,z,1,0.6587827997282147,None,14,001,2023-10-16_22h50.02.683,Lab experiment 4,2023.1.3,61.27841471765154,
-50,x,,,,,10,1,41,0,749.1360214999877,750.136036799755,750.136036799755,750.136036799755,750.136036799755,750.136036799755,751.1362630999647,751.1362630999647,x,1,0.5591338998638093,None,14,001,2023-10-16_22h50.02.683,Lab experiment 4,2023.1.3,61.27841471765154,
-50,x,,,,,10,2,42,0,751.7202662001364,752.7040360001847,752.7040360001847,752.7040360001847,752.7040360001847,752.7207140000537,753.7044108998962,753.7044108998962,x,1,0.5933208004571497,None,14,001,2023-10-16_22h50.02.683,Lab experiment 4,2023.1.3,61.27841471765154,
-50,x,,,,,10,3,43,0,754.3205325999297,755.3050223998725,755.3050223998725,755.3050223998725,755.3050223998725,755.3210271997377,756.3054018002003,756.3054018002003,x,1,0.6956922002136707,None,14,001,2023-10-16_22h50.02.683,Lab experiment 4,2023.1.3,61.27841471765154,
-50,x,,,,,11,0,44,0,757.0218603997491,758.0222447998822,758.0222447998822,758.0222447998822,758.0222447998822,758.0222447998822,759.0231003998779,759.0231003998779,x,1,0.7528415000997484,None,14,001,2023-10-16_22h50.02.683,Lab experiment 4,2023.1.3,61.27841471765154,
50,c,,,,,11,1,45,2,759.8067322000861,760.8071109000593,760.8071109000593,760.8071109000593,760.8071109000593,760.8071109000593,761.8074908000417,761.8074908000417,c,1,0.98583950009197,None,14,001,2023-10-16_22h50.02.683,Lab experiment 4,2023.1.3,61.27841471765154,
-150,z,,,,,11,2,46,3,762.8245335998945,763.8242687997408,763.8242687997408,763.8242687997408,763.8242687997408,763.8242687997408,764.8079232000746,764.8079232000746,z,1,0.9003745000809431,None,14,001,2023-10-16_22h50.02.683,Lab experiment 4,2023.1.3,61.27841471765154,
50,c,,,,,11,3,47,2,765.725638799835,766.7260147999041,766.7260147999041,766.7260147999041,766.7260147999041,766.7260147999041,767.7263997001573,767.7263997001573,c,1,2.2487559001892805,None,14,001,2023-10-16_22h50.02.683,Lab experiment 4,2023.1.3,61.27841471765154,
-50,x,,,,,12,0,48,0,769.9936305000447,770.9942960999906,770.9942960999906,770.9942960999906,770.9942960999906,770.9942960999906,771.9780076001771,771.9780076001771,x,1,1.7351027000695467,None,14,001,2023-10-16_22h50.02.683,Lab experiment 4,2023.1.3,61.27841471765154,
-50,x,,,,,12,1,49,0,773.7453403999098,774.7286275997758,774.7286275997758,774.7286275997758,774.7286275997758,774.74523520004,775.7291318001226,775.7291318001226,x,1,0.6957363998517394,None,14,001,2023-10-16_22h50.02.683,Lab experiment 4,2023.1.3,61.27841471765154,
-50,x,,,,,12,2,50,0,776.4455809001811,777.4465256999247,777.4465256999247,777.4465256999247,777.4465256999247,777.4465256999247,778.4464195999317,778.4464195999317,x,1,0.7255302998237312,None,14,001,2023-10-16_22h50.02.683,Lab experiment 4,2023.1.3,61.27841471765154,
-150,z,,,,,12,3,51,3,779.1974214999937,780.1973866000772,780.1973866000772,780.1973866000772,780.1973866000772,780.1973866000772,781.197706699837,781.197706699837,z,1,0.8914395999163389,None,14,001,2023-10-16_22h50.02.683,Lab experiment 4,2023.1.3,61.27841471765154,
-150,z,,,,,13,0,52,3,782.115171900019,783.1149925999343,783.1149925999343,783.1149925999343,783.1149925999343,783.1149925999343,784.1159312999807,784.1159312999807,z,1,0.7185480003245175,None,14,001,2023-10-16_22h50.02.683,Lab experiment 4,2023.1.3,61.27841471765154,
-50,x,,,,,13,1,53,0,784.8656228999607,785.8661303999834,785.8661303999834,785.8661303999834,785.8661303999834,785.8661303999834,786.8669745000079,786.8669745000079,x,1,0.6319631999358535,None,14,001,2023-10-16_22h50.02.683,Lab experiment 4,2023.1.3,61.27841471765154,
-50,x,,,,,13,2,54,0,787.5166255999357,788.5175977000035,788.5175977000035,788.5175977000035,788.5175977000035,788.5175977000035,789.5013052001595,789.5013052001595,x,1,0.7517772000283003,None,14,001,2023-10-16_22h50.02.683,Lab experiment 4,2023.1.3,61.27841471765154,
-150,z,,,,,13,3,55,3,790.2849373999052,791.2853180998936,791.2853180998936,791.2853180998936,791.2853180998936,791.2853180998936,792.268540199846,792.268540199846,z,1,0.44428110029548407,None,14,001,2023-10-16_22h50.02.683,Lab experiment 4,2023.1.3,61.27841471765154,
50,c,,,,,14,0,56,2,792.7350368001498,793.7356217000633,793.7356217000633,793.7356217000633,793.7356217000633,793.7356217000633,794.7362218000926,794.7362218000926,c,1,0.7192187001928687,None,14,001,2023-10-16_22h50.02.683,Lab experiment 4,2023.1.3,61.27841471765154,
50,c,,,,,14,1,57,2,795.4861767999828,796.4869459001347,796.4869459001347,796.4869459001347,796.4869459001347,796.4869459001347,797.4876705999486,797.4876705999486,c,1,0.9667071001604199,None,14,001,2023-10-16_22h50.02.683,Lab experiment 4,2023.1.3,61.27841471765154,
150,v,,,,,14,2,58,1,798.47137140017,799.4711831999011,799.4711831999011,799.4711831999011,799.4711831999011,799.4711831999011,800.4716920000501,800.4716920000501,v,1,0.4068895000964403,None,14,001,2023-10-16_22h50.02.683,Lab experiment 4,2023.1.3,61.27841471765154,
-50,x,,,,,14,3,59,0,800.9056290998124,801.9054768998176,801.9054768998176,801.9054768998176,801.9054768998176,801.9054768998176,802.8892156998627,802.8892156998627,x,1,0.6840554000809789,None,14,001,2023-10-16_22h50.02.683,Lab experiment 4,2023.1.3,61.27841471765154,
50,c,,,,,15,0,60,2,803.5899780998006,804.5903580999002,804.5903580999002,804.5903580999002,804.5903580999002,804.5903580999002,805.57405260019,805.57405260019,c,1,0.4952329001389444,None,14,001,2023-10-16_22h50.02.683,Lab experiment 4,2023.1.3,61.27841471765154,
-150,z,,,,,15,1,61,3,806.0909219998866,807.0908967000432,807.0908967000432,807.0908967000432,807.0908967000432,807.0908967000432,808.0916769998148,808.0916769998148,z,1,0.4930739998817444,None,14,001,2023-10-16_22h50.02.683,Lab experiment 4,2023.1.3,61.27841471765154,
-150,z,,,,,15,2,62,3,808.6085443999618,809.6083542001434,809.6083542001434,809.6083542001434,809.6083542001434,809.6083542001434,810.6093000997789,810.6093000997789,z,1,5.031341900117695,None,14,001,2023-10-16_22h50.02.683,Lab experiment 4,2023.1.3,61.27841471765154,
50,c,,,,,15,3,63,2,815.6612150999717,816.6615933999419,816.6615933999419,816.6615933999419,816.6615933999419,816.6615933999419,817.6448005000129,817.6448005000129,c,1,1.4737765002064407,None,14,001,2023-10-16_22h50.02.683,Lab experiment 4,2023.1.3,61.27841471765154,
-150,z,,,,,16,0,64,3,819.145864199847,820.1462650001049,820.1462650001049,820.1462650001049,820.1462650001049,820.1462650001049,821.1299531999975,821.1299531999975,z,1,1.0311243999749422,None,14,001,2023-10-16_22h50.02.683,Lab experiment 4,2023.1.3,61.27841471765154,
-50,x,,,,,16,1,65,0,822.1803485001437,823.1801346000284,823.1801346000284,823.1801346000284,823.1801346000284,823.1801346000284,824.1807658998296,824.1807658998296,x,1,0.5179575001820922,None,14,001,2023-10-16_22h50.02.683,Lab experiment 4,2023.1.3,61.27841471765154,
-50,x,,,,,16,2,66,0,824.7305084001273,825.731096799951,825.731096799951,825.731096799951,825.731096799951,825.731096799951,826.7315356000327,826.7315356000327,x,1,0.6402212004177272,None,14,001,2023-10-16_22h50.02.683,Lab experiment 4,2023.1.3,61.27841471765154,
150,v,,,,,16,3,67,1,827.3985426998697,828.3993759001605,828.3993759001605,828.3993759001605,828.3993759001605,828.3993759001605,829.383083499968,829.383083499968,v,1,1.0672480999492109,None,14,001,2023-10-16_22h50.02.683,Lab experiment 4,2023.1.3,61.27841471765154,
-150,z,,,,,17,0,68,3,830.4668129999191,831.4666081997566,831.4666081997566,831.4666081997566,831.4666081997566,831.4666081997566,832.4670008001849,832.4670008001849,z,1,1.074585100170225,None,14,001,2023-10-16_22h50.02.683,Lab experiment 4,2023.1.3,61.27841471765154,
-50,x,,,,,17,1,69,0,833.5679934998043,834.5683863000013,834.5683863000013,834.5683863000013,834.5683863000013,834.5683863000013,835.5516319000162,835.5516319000162,x,1,0.5541102001443505,None,14,001,2023-10-16_22h50.02.683,Lab experiment 4,2023.1.3,61.27841471765154,
-50,x,,,,,17,2,70,0,836.135638399981,837.1357948998921,837.1357948998921,837.1357948998921,837.1357948998921,837.1357948998921,838.1364209000021,838.1364209000021,x,1,0.7264513000845909,None,14,001,2023-10-16_22h50.02.683,Lab experiment 4,2023.1.3,61.27841471765154,
-50,x,,,,,17,3,71,0,838.885977699887,839.887054100167,839.887054100167,839.887054100167,839.887054100167,839.887054100167,840.8707583001815,840.8707583001815,x,1,0.6093925004824996,None,14,001,2023-10-16_22h50.02.683,Lab experiment 4,2023.1.3,61.27841471765154,
-150,z,,,,,18,0,72,3,841.5038844998926,842.5042364001274,842.5042364001274,842.5042364001274,842.5042364001274,842.5042364001274,843.4884219001979,843.4884219001979,z,1,0.8522041002288461,None,14,001,2023-10-16_22h50.02.683,Lab experiment 4,2023.1.3,61.27841471765154,
150,v,,,,,18,1,73,1,844.3720813998953,845.3724704999477,845.3724704999477,845.3724704999477,845.3724704999477,845.3724704999477,846.356170900166,846.356170900166,v,1,1.0964859002269804,None,14,001,2023-10-16_22h50.02.683,Lab experiment 4,2023.1.3,61.27841471765154,
-50,x,,,,,18,2,74,0,847.4726491998881,848.473658700008,848.473658700008,848.473658700008,848.473658700008,848.473658700008,849.4565861001611,849.4565861001611,x,1,0.8961084000766277,None,14,001,2023-10-16_22h50.02.683,Lab experiment 4,2023.1.3,61.27841471765154,
-50,x,,,,,18,3,75,0,850.3737659999169,851.3574278000742,851.3574278000742,851.3574278000742,851.3574278000742,851.3741138000041,852.3581662001088,852.3581662001088,x,1,0.5012789000757039,None,14,001,2023-10-16_22h50.02.683,Lab experiment 4,2023.1.3,61.27841471765154,
50,c,,,,,19,0,76,2,852.8919755001552,853.8748965999112,853.8748965999112,853.8748965999112,853.8748965999112,853.8918106998317,854.8921713000163,854.8921713000163,c,1,0.4202503003180027,None,14,001,2023-10-16_22h50.02.683,Lab experiment 4,2023.1.3,61.27841471765154,
50,c,,,,,19,1,77,2,855.342389700003,856.3432908998802,856.3432908998802,856.3432908998802,856.3432908998802,856.3432908998802,857.3436647001654,857.3436647001654,c,1,0.6716776001267135,None,14,001,2023-10-16_22h50.02.683,Lab experiment 4,2023.1.3,61.27841471765154,
-50,x,,,,,19,2,78,0,858.0439289999194,859.044317800086,859.044317800086,859.044317800086,859.044317800086,859.044317800086,860.0446901000105,860.0446901000105,x,1,0.49373390013352036,None,14,001,2023-10-16_22h50.02.683,Lab experiment 4,2023.1.3,61.27841471765154,
150,v,,,,,19,3,79,1,860.5615476001985,861.5619318997487,861.5619318997487,861.5619318997487,861.5619318997487,861.5619318997487,862.5617658998817,862.5617658998817,v,1,1.385992499999702,None,14,001,2023-10-16_22h50.02.683,Lab experiment 4,2023.1.3,61.27841471765154,
50,c,,,,,20,0,80,2,863.9795158999041,864.9795125997625,864.9795125997625,864.9795125997625,864.9795125997625,864.9795125997625,865.9802737999707,865.9802737999707,c,1,1.4478226001374424,None,14,001,2023-10-16_22h50.02.683,Lab experiment 4,2023.1.3,61.27841471765154,
-150,z,,,,,20,1,81,3,867.4468919998035,868.4478752999566,868.4478752999566,868.4478752999566,868.4478752999566,868.4478752999566,869.431580899749,869.431580899749,z,1,0.8887860998511314,None,14,001,2023-10-16_22h50.02.683,Lab experiment 4,2023.1.3,61.27841471765154,
50,c,,,,,20,2,82,2,870.3481092001311,871.3489795001224,871.3489795001224,871.3489795001224,871.3489795001224,871.3489795001224,872.349355999846,872.349355999846,c,1,0.51593520026654,None,14,001,2023-10-16_22h50.02.683,Lab experiment 4,2023.1.3,61.27841471765154,
50,c,,,,,20,3,83,2,872.8821123000234,873.8832605998032,873.8832605998032,873.8832605998032,873.8832605998032,873.8832605998032,874.8836409999058,874.8836409999058,c,1,0.3935879999771714,None,14,001,2023-10-16_22h50.02.683,Lab experiment 4,2023.1.3,61.27841471765154,
-50,x,,,,,21,0,84,0,875.2999593997374,876.30040619988,876.30040619988,876.30040619988,876.30040619988,876.30040619988,877.3012210000306,877.3012210000306,x,1,0.44785029999911785,None,14,001,2023-10-16_22h50.02.683,Lab experiment 4,2023.1.3,61.27841471765154,
-150,z,,,,,21,1,85,3,877.7676315000281,878.7684471001849,878.7684471001849,878.7684471001849,878.7684471001849,878.7684471001849,879.7521442999132,879.7521442999132,z,1,1.3521634000353515,None,14,001,2023-10-16_22h50.02.683,Lab experiment 4,2023.1.3,61.27841471765154,
-150,z,,,,,21,2,86,3,881.1354275997728,882.1360993999988,882.1360993999988,882.1360993999988,882.1360993999988,882.1360993999988,883.120093499776,883.120093499776,z,1,0.578608799725771,None,14,001,2023-10-16_22h50.02.683,Lab experiment 4,2023.1.3,61.27841471765154,
-50,x,,,,,21,3,87,0,883.7203413997777,884.7207073997706,884.7207073997706,884.7207073997706,884.7207073997706,884.7207073997706,885.7044045999646,885.7044045999646,x,1,0.7635822002775967,None,14,001,2023-10-16_22h50.02.683,Lab experiment 4,2023.1.3,61.27841471765154,
150,v,,,,,22,0,88,1,886.4875770001672,887.4880810999312,887.4880810999312,887.4880810999312,887.4880810999312,887.4880810999312,888.4887914997526,888.4887914997526,v,1,1.1913468004204333,None,14,001,2023-10-16_22h50.02.683,Lab experiment 4,2023.1.3,61.27841471765154,
-50,x,,,,,22,1,89,0,889.7055136999115,890.705757800024,890.705757800024,890.705757800024,890.705757800024,890.705757800024,891.7066803001799,891.7066803001799,x,1,0.5827989000827074,None,14,001,2023-10-16_22h50.02.683,Lab experiment 4,2023.1.3,61.27841471765154,
50,c,,,,,22,2,90,2,892.3069080999121,893.2906081001274,893.2906081001274,893.2906081001274,893.2906081001274,893.3066294998862,894.2905243001878,894.2905243001878,c,1,0.3671294003725052,None,14,001,2023-10-16_22h50.02.683,Lab experiment 4,2023.1.3,61.27841471765154,
-50,x,,,,,22,3,91,0,894.6737596001476,895.6748528997414,895.6748528997414,895.6748528997414,895.6748528997414,895.6748528997414,896.6752272997983,896.6752272997983,x,1,1.3758861999958754,None,14,001,2023-10-16_22h50.02.683,Lab experiment 4,2023.1.3,61.27841471765154,
50,c,,,,,23,0,92,2,898.0757559998892,899.075745199807,899.075745199807,899.075745199807,899.075745199807,899.075745199807,900.0765160997398,900.0765160997398,c,1,0.5210206001065671,None,14,001,2023-10-16_22h50.02.683,Lab experiment 4,2023.1.3,61.27841471765154,
50,c,,,,,23,1,93,2,900.6262309998274,901.626755299978,901.626755299978,901.626755299978,901.626755299978,901.626755299978,902.627477100119,902.627477100119,c,1,0.45715259993448853,None,14,001,2023-10-16_22h50.02.683,Lab experiment 4,2023.1.3,61.27841471765154,
-50,x,,,,,23,2,94,0,903.1109736999497,904.1113757998683,904.1113757998683,904.1113757998683,904.1113757998683,904.1113757998683,905.0950839999132,905.0950839999132,x,1,0.8512729001231492,None,14,001,2023-10-16_22h50.02.683,Lab experiment 4,2023.1.3,61.27841471765154,
-50,x,,,,,23,3,95,0,905.9781587999314,906.97845220007,906.97845220007,906.97845220007,906.97845220007,906.97845220007,907.9624271998182,907.9624271998182,x,1,0.5921907997690141,None,14,001,2023-10-16_22h50.02.683,Lab experiment 4,2023.1.3,61.27841471765154,
50,c,,,,,24,0,96,2,908.5791171998717,909.5801165001467,909.5801165001467,909.5801165001467,909.5801165001467,909.5801165001467,910.5631058998406,910.5631058998406,c,1,0.3341852002777159,None,14,001,2023-10-16_22h50.02.683,Lab experiment 4,2023.1.3,61.27841471765154,
150,v,,,,,24,1,97,1,910.9306048001163,911.9305571001023,911.9305571001023,911.9305571001023,911.9305571001023,911.9305571001023,912.9309563999996,912.9309563999996,v,1,0.5339247002266347,None,14,001,2023-10-16_22h50.02.683,Lab experiment 4,2023.1.3,61.27841471765154,
-50,x,,,,,24,2,98,0,913.4815909001045,914.4817137997597,914.4817137997597,914.4817137997597,914.4817137997597,914.4817137997597,915.4823488001712,915.4823488001712,x,1,19.296579100191593,None,14,001,2023-10-16_22h50.02.683,Lab experiment 4,2023.1.3,61.27841471765154,
-50,x,,,,,24,3,99,0,934.8062554001808,935.8062372999266,935.8062372999266,935.8062372999266,935.8062372999266,935.8062372999266,936.8070980999619,936.8070980999619,x,1,0.767145000398159,None,14,001,2023-10-16_22h50.02.683,Lab experiment 4,2023.1.3,61.27841471765154,
150,v,,,,,25,0,100,1,937.5907215001062,938.5911000999622,938.5911000999622,938.5911000999622,938.5911000999622,938.5911000999622,939.5914833997376,939.5914833997376,v,1,0.8629049002192914,None,14,001,2023-10-16_22h50.02.683,Lab experiment 4,2023.1.3,61.27841471765154,
-50,x,,,,,25,1,101,0,940.4745261999778,941.4588525998406,941.4588525998406,941.4588525998406,941.4588525998406,941.4755278001539,942.459230999928,942.459230999928,c,0,0.43279110034927726,None,14,001,2023-10-16_22h50.02.683,Lab experiment 4,2023.1.3,61.27841471765154,
150,v,,,,,25,2,102,1,942.9094068999402,943.8931118999608,943.8931118999608,943.8931118999608,943.8931118999608,943.9097835998982,944.8934844001196,944.8934844001196,x,0,0.9815869000740349,None,14,001,2023-10-16_22h50.02.683,Lab experiment 4,2023.1.3,61.27841471765154,
-150,z,,,,,25,3,103,3,945.8935704999603,946.8942475998774,946.8942475998774,946.8942475998774,946.8942475998774,946.8942475998774,947.8779568001628,947.8779568001628,c,0,0.5522467000409961,None,14,001,2023-10-16_22h50.02.683,Lab experiment 4,2023.1.3,61.27841471765154,
-150,z,,,,,26,0,104,3,948.4615009999834,949.4618934001774,949.4618934001774,949.4618934001774,949.4618934001774,949.4618934001774,950.4450873001479,950.4450873001479,z,1,0.9348395997658372,None,14,001,2023-10-16_22h50.02.683,Lab experiment 4,2023.1.3,61.27841471765154,
150,v,,,,,26,1,105,1,951.4120612000115,952.4125918997452,952.4125918997452,952.4125918997452,952.4125918997452,952.4125918997452,953.4133767997846,953.4133767997846,v,1,0.6481943000108004,None,14,001,2023-10-16_22h50.02.683,Lab experiment 4,2023.1.3,61.27841471765154,
-50,x,,,,,26,2,106,0,954.0803121998906,955.080679600127,955.080679600127,955.080679600127,955.080679600127,955.080679600127,956.0643817000091,956.0643817000091,x,1,0.3444270002655685,None,14,001,2023-10-16_22h50.02.683,Lab experiment 4,2023.1.3,61.27841471765154,
-50,x,,,,,26,3,107,0,956.4311914001592,957.4315745001659,957.4315745001659,957.4315745001659,957.4315745001659,957.4315745001659,958.4154101000167,958.4154101000167,x,1,0.5135135003365576,None,14,001,2023-10-16_22h50.02.683,Lab experiment 4,2023.1.3,61.27841471765154,
50,c,,,,,27,0,108,2,958.9488115999848,959.9325204999186,959.9325204999186,959.9325204999186,959.9325204999186,959.9491937998682,960.932492100168,960.932492100168,x,0,0.34682010021060705,None,14,001,2023-10-16_22h50.02.683,Lab experiment 4,2023.1.3,61.27841471765154,
50,c,,,,,27,1,109,2,961.2997018997557,962.2834056001157,962.2834056001157,962.2834056001157,962.2834056001157,962.2995369997807,963.283111799974,963.283111799974,c,1,0.9887767001055181,None,14,001,2023-10-16_22h50.02.683,Lab experiment 4,2023.1.3,61.27841471765154,
150,v,,,,,27,2,110,1,964.3001875001937,965.2845446001738,965.2845446001738,965.2845446001738,965.2845446001738,965.3012151997536,966.2841968000866,966.2841968000866,v,1,17.54705199971795,None,14,001,2023-10-16_22h50.02.683,Lab experiment 4,2023.1.3,61.27841471765154,
-150,z,,,,,27,3,111,3,983.8582526999526,984.8586244997568,984.8586244997568,984.8586244997568,984.8586244997568,984.8586244997568,985.8590041999705,985.8590041999705,z,1,1.084901699796319,None,14,001,2023-10-16_22h50.02.683,Lab experiment 4,2023.1.3,61.27841471765154,
150,v,,,,,28,0,112,1,986.9755547000095,987.9764931998216,987.9764931998216,987.9764931998216,987.9764931998216,987.9764931998216,988.9768556999043,988.9768556999043,v,1,1.0251048998907208,None,14,001,2023-10-16_22h50.02.683,Lab experiment 4,2023.1.3,61.27841471765154,
50,c,,,,,28,1,113,2,990.0272454000078,991.0271144001745,991.0271144001745,991.0271144001745,991.0271144001745,991.0271144001745,992.0274265999906,992.0274265999906,c,1,0.5985895004123449,None,14,001,2023-10-16_22h50.02.683,Lab experiment 4,2023.1.3,61.27841471765154,
150,v,,,,,28,2,114,1,992.6449048998766,993.6445792000741,993.6445792000741,993.6445792000741,993.6445792000741,993.6445792000741,994.6290001999587,994.6290001999587,v,1,0.8367700004018843,None,14,001,2023-10-16_22h50.02.683,Lab experiment 4,2023.1.3,61.27841471765154,
150,v,,,,,28,3,115,1,995.4954873998649,996.4959582998417,996.4959582998417,996.4959582998417,996.4959582998417,996.4959582998417,997.496739000082,997.496739000082,v,1,0.6167516000568867,None,14,001,2023-10-16_22h50.02.683,Lab experiment 4,2023.1.3,61.27841471765154,
50,c,,,,,29,0,116,2,998.146540499758,999.1473770998418,999.1473770998418,999.1473770998418,999.1473770998418,999.1473770998418,1000.1310776001774,1000.1310776001774,c,1,0.5119314002804458,None,14,001,2023-10-16_22h50.02.683,Lab experiment 4,2023.1.3,61.27841471765154,
-50,x,,,,,29,1,117,0,1000.6640272000805,1001.6649923999794,1001.6649923999794,1001.6649923999794,1001.6649923999794,1001.6649923999794,1002.6486974,1002.6486974,x,1,11.004525400232524,None,14,001,2023-10-16_22h50.02.683,Lab experiment 4,2023.1.3,61.27841471765154,
150,v,,,,,29,2,118,1,1013.6862107999623,1014.686592000071,1014.686592000071,1014.686592000071,1014.686592000071,1014.686592000071,1015.6702990001068,1015.6702990001068,v,1,0.8122615003958344,None,14,001,2023-10-16_22h50.02.683,Lab experiment 4,2023.1.3,61.27841471765154,
-150,z,,,,,29,3,119,3,1016.5039409999736,1017.5049449000508,1017.5049449000508,1017.5049449000508,1017.5049449000508,1017.5049449000508,1018.4880286999978,1018.4880286999978,z,1,19.46035319985822,None,14,001,2023-10-16_22h50.02.683,Lab experiment 4,2023.1.3,61.27841471765154,
150,v,,,,,30,0,120,1,1037.978267100174,1038.9791254000738,1038.9791254000738,1038.9791254000738,1038.9791254000738,1038.9791254000738,1039.9628383000381,1039.9628383000381,v,1,0.923214300069958,None,14,001,2023-10-16_22h50.02.683,Lab experiment 4,2023.1.3,61.27841471765154,
150,v,,,,,30,1,121,1,1040.9131903001107,1041.9135678000748,1041.9135678000748,1041.9135678000748,1041.9135678000748,1041.9135678000748,1042.9134573000483,1042.9134573000483,v,1,0.8736339001916349,None,14,001,2023-10-16_22h50.02.683,Lab experiment 4,2023.1.3,61.27841471765154,
50,c,,,,,30,2,122,2,1043.8142911000177,1044.8146671997383,1044.8146671997383,1044.8146671997383,1044.8146671997383,1044.8146671997383,1045.7983764000237,1045.7983764000237,c,1,0.5173364002257586,None,14,001,2023-10-16_22h50.02.683,Lab experiment 4,2023.1.3,61.27841471765154,
150,v,,,,,30,3,123,1,1046.348004499916,1047.3493614997715,1047.3493614997715,1047.3493614997715,1047.3493614997715,1047.3493614997715,1048.3326701000333,1048.3326701000333,v,1,0.6170505001209676,None,14,001,2023-10-16_22h50.02.683,Lab experiment 4,2023.1.3,61.27841471765154,
150,v,,,,,31,0,124,1,1048.982466999907,1049.98328340007,1049.98328340007,1049.98328340007,1049.98328340007,1049.98328340007,1050.9670063997619,1050.9670063997619,v,1,5.264056300278753,None,14,001,2023-10-16_22h50.02.683,Lab experiment 4,2023.1.3,61.27841471765154,
150,v,,,,,31,1,125,1,1056.2517721001059,1057.2522228001617,1057.2522228001617,1057.2522228001617,1057.2522228001617,1057.2522228001617,1058.236419199966,1058.236419199966,v,1,0.8764945003204048,None,14,001,2023-10-16_22h50.02.683,Lab experiment 4,2023.1.3,61.27841471765154,
-150,z,,,,,31,2,126,3,1059.136764400173,1060.1367506999522,1060.1367506999522,1060.1367506999522,1060.1367506999522,1060.1367506999522,1061.1370267001912,1061.1370267001912,z,1,1.935727700125426,None,14,001,2023-10-16_22h50.02.683,Lab experiment 4,2023.1.3,61.27841471765154,
-150,z,,,,,31,3,127,3,1063.1049346001819,1064.1053153998218,1064.1053153998218,1064.1053153998218,1064.1053153998218,1064.1053153998218,1065.0883598001674,1065.0883598001674,z,1,0.5925060999579728,None,14,001,2023-10-16_22h50.02.683,Lab experiment 4,2023.1.3,61.27841471765154,
50,c,,,,,32,0,128,2,1065.705914599821,1066.7062935000286,1066.7062935000286,1066.7062935000286,1066.7062935000286,1066.7062935000286,1067.6899985000491,1067.6899985000491,c,1,0.8671909999102354,None,14,001,2023-10-16_22h50.02.683,Lab experiment 4,2023.1.3,61.27841471765154,
50,c,,,,,32,1,129,2,1068.573669699952,1069.5734363999218,1069.5734363999218,1069.5734363999218,1069.5734363999218,1069.5734363999218,1070.57386210002,1070.57386210002,c,1,0.6749423001892865,None,14,001,2023-10-16_22h50.02.683,Lab experiment 4,2023.1.3,61.27841471765154,
-50,x,,,,,32,2,130,0,1071.2746942001395,1072.2750748000108,1072.2750748000108,1072.2750748000108,1072.2750748000108,1072.2750748000108,1073.2754528997466,1073.2754528997466,x,1,0.32884320011362433,None,14,001,2023-10-16_22h50.02.683,Lab experiment 4,2023.1.3,61.27841471765154,
-150,z,,,,,32,3,131,3,1073.6255810000002,1074.6253753998317,1074.6253753998317,1074.6253753998317,1074.6253753998317,1074.6253753998317,1075.62633309979,1075.62633309979,z,1,1.955078599974513,None,14,001,2023-10-16_22h50.02.683,Lab experiment 4,2023.1.3,61.27841471765154,
150,v,,,,,33,0,132,1,1077.6104382001795,1078.6104210000485,1078.6104210000485,1078.6104210000485,1078.6104210000485,1078.6104210000485,1079.611185300164,1079.611185300164,v,1,0.682477300055325,None,14,001,2023-10-16_22h50.02.683,Lab experiment 4,2023.1.3,61.27841471765154,
-150,z,,,,,33,1,133,3,1080.3114515999332,1081.3114455998875,1081.3114455998875,1081.3114455998875,1081.3114455998875,1081.3114455998875,1082.311660700012,1082.311660700012,z,1,0.5627334001474082,None,14,001,2023-10-16_22h50.02.683,Lab experiment 4,2023.1.3,61.27841471765154,
50,c,,,,,33,2,134,2,1082.895033699926,1083.8961411998607,1083.8961411998607,1083.8961411998607,1083.8961411998607,1083.8961411998607,1084.879844499752,1084.879844499752,c,1,16.12113650003448,None,14,001,2023-10-16_22h50.02.683,Lab experiment 4,2023.1.3,61.27841471765154,
-50,x,,,,,33,3,135,0,1101.0192864001729,1102.0191211001948,1102.0191211001948,1102.0191211001948,1102.0191211001948,1102.0191211001948,1103.0193850998767,1103.0193850998767,x,1,7.088402499910444,None,14,001,2023-10-16_22h50.02.683,Lab experiment 4,2023.1.3,61.27841471765154,
50,c,,,,,34,0,136,2,1110.1394159998745,1111.1397986998782,1111.1397986998782,1111.1397986998782,1111.1397986998782,1111.1397986998782,1112.1229595001787,1112.1229595001787,c,1,1.3144680000841618,None,14,001,2023-10-16_22h50.02.683,Lab experiment 4,2023.1.3,61.27841471765154,
150,v,,,,,34,1,137,1,1113.457350499928,1114.457195899915,1114.457195899915,1114.457195899915,1114.457195899915,1114.457195899915,1115.4410489997827,1115.4410489997827,v,1,1.7426183000206947,None,14,001,2023-10-16_22h50.02.683,Lab experiment 4,2023.1.3,61.27841471765154,
50,c,,,,,34,2,138,2,1117.208139100112,1118.2091393000446,1118.2091393000446,1118.2091393000446,1118.2091393000446,1118.2091393000446,1119.1928484998643,1119.1928484998643,c,1,1.000773400068283,None,14,001,2023-10-16_22h50.02.683,Lab experiment 4,2023.1.3,61.27841471765154,
50,c,,,,,34,3,139,2,1120.2260775999166,1121.226948699914,1121.226948699914,1121.226948699914,1121.226948699914,1121.226948699914,1122.210658799857,1122.210658799857,c,1,2.635948400013149,None,14,001,2023-10-16_22h50.02.683,Lab experiment 4,2023.1.3,61.27841471765154,
150,v,,,,,35,0,140,1,1124.8777085999027,1125.8782707997598,1125.8782707997598,1125.8782707997598,1125.8782707997598,1125.8782707997598,1126.8790898001753,1126.8790898001753,v,1,1.02927720034495,None,14,001,2023-10-16_22h50.02.683,Lab experiment 4,2023.1.3,61.27841471765154,
50,c,,,,,35,1,141,2,1127.9294779999182,1128.9298684997484,1128.9298684997484,1128.9298684997484,1128.9298684997484,1128.9298684997484,1129.9135730001144,1129.9135730001144,c,1,3.8652654998004436,None,14,001,2023-10-16_22h50.02.683,Lab experiment 4,2023.1.3,61.27841471765154,
150,v,,,,,35,2,142,1,1133.7976552997716,1134.7982507999986,1134.7982507999986,1134.7982507999986,1134.7982507999986,1134.7982507999986,1135.781849999912,1135.781849999912,v,1,0.9513332000933588,None,14,001,2023-10-16_22h50.02.683,Lab experiment 4,2023.1.3,61.27841471765154,
-50,x,,,,,35,3,143,0,1136.7661719000898,1137.7498745000921,1137.7498745000921,1137.7498745000921,1137.7498745000921,1137.7665455001406,1138.750258400105,1138.750258400105,x,1,4.530517800245434,None,14,001,2023-10-16_22h50.02.683,Lab experiment 4,2023.1.3,61.27841471765154,
150,v,,,,,36,0,144,1,1143.301976100076,1144.3019262999296,1144.3019262999296,1144.3019262999296,1144.3019262999296,1144.3019262999296,1145.3022326999344,1145.3022326999344,v,1,0.8675824999809265,None,14,001,2023-10-16_22h50.02.683,Lab experiment 4,2023.1.3,61.27841471765154,
50,c,,,,,36,1,145,2,1146.2030784999952,1147.2029528999701,1147.2029528999701,1147.2029528999701,1147.2029528999701,1147.2029528999701,1148.1866410998628,1148.1866410998628,c,1,2.593143000267446,None,14,001,2023-10-16_22h50.02.683,Lab experiment 4,2023.1.3,61.27841471765154,
-150,z,,,,,36,2,146,3,1150.8041614000686,1151.8047695001587,1151.8047695001587,1151.8047695001587,1151.8047695001587,1151.8047695001587,1152.805576699786,1152.805576699786,z,1,1.0561453998088837,None,14,001,2023-10-16_22h50.02.683,Lab experiment 4,2023.1.3,61.27841471765154,
-50,x,,,,,36,3,147,0,1153.889323099982,1154.889181099832,1154.889181099832,1154.889181099832,1154.889181099832,1154.889181099832,1155.8895779000595,1155.8895779000595,x,1,0.9080134998075664,None,14,001,2023-10-16_22h50.02.683,Lab experiment 4,2023.1.3,61.27841471765154,
-50,x,,,,,37,0,148,0,1156.82330249995,1157.8236811999232,1157.8236811999232,1157.8236811999232,1157.8236811999232,1157.8236811999232,1158.8245242000557,1158.8245242000557,x,1,0.6988670001737773,None,14,001,2023-10-16_22h50.02.683,Lab experiment 4,2023.1.3,61.27841471765154,
-150,z,,,,,37,1,149,3,1159.5414594998583,1160.5413056998514,1160.5413056998514,1160.5413056998514,1160.5413056998514,1160.5413056998514,1161.5422172001563,1161.5422172001563,z,1,0.6154733002185822,None,14,001,2023-10-16_22h50.02.683,Lab experiment 4,2023.1.3,61.27841471765154,
150,v,,,,,37,2,150,1,1162.1751899998635,1163.1756048998795,1163.1756048998795,1163.1756048998795,1163.1756048998795,1163.1756048998795,1164.176199699752,1164.176199699752,v,1,4.171801200136542,None,14,001,2023-10-16_22h50.02.683,Lab experiment 4,2023.1.3,61.27841471765154,
-150,z,,,,,37,3,151,3,1168.378142000176,1169.3778650001623,1169.3778650001623,1169.3778650001623,1169.3778650001623,1169.3778650001623,1170.3788263997994,1170.3788263997994,z,1,1.243949200026691,None,14,001,2023-10-16_22h50.02.683,Lab experiment 4,2023.1.3,61.27841471765154,
-150,z,,,,,38,0,152,3,1171.6460616998374,1172.6464359001257,1172.6464359001257,1172.6464359001257,1172.6464359001257,1172.6464359001257,1173.6461784997955,1173.6461784997955,z,1,3.500501200091094,None,14,001,2023-10-16_22h50.02.683,Lab experiment 4,2023.1.3,61.27841471765154,
-150,z,,,,,38,1,153,3,1177.1641640998423,1178.1644183997996,1178.1644183997996,1178.1644183997996,1178.1644183997996,1178.1644183997996,1179.1650212001987,1179.1650212001987,z,1,1.1698409002274275,None,14,001,2023-10-16_22h50.02.683,Lab experiment 4,2023.1.3,61.27841471765154,
-50,x,,,,,38,2,154,0,1180.36555769993,1181.3656962998211,1181.3656962998211,1181.3656962998211,1181.3656962998211,1181.3656962998211,1182.3667754000053,1182.3667754000053,x,1,3.2872995999641716,None,14,001,2023-10-16_22h50.02.683,Lab experiment 4,2023.1.3,61.27841471765154,
-50,x,,,,,38,3,155,0,1185.6847001998685,1186.6850820998661,1186.6850820998661,1186.6850820998661,1186.6850820998661,1186.6850820998661,1187.6679977998137,1187.6679977998137,x,1,1.3350460003130138,None,14,001,2023-10-16_22h50.02.683,Lab experiment 4,2023.1.3,61.27841471765154,
150,v,,,,,39,0,156,1,1189.0353306997567,1190.0357951000333,1190.0357951000333,1190.0357951000333,1190.0357951000333,1190.0357951000333,1191.020062000025,1191.020062000025,v,1,1.8826111000962555,None,14,001,2023-10-16_22h50.02.683,Lab experiment 4,2023.1.3,61.27841471765154,
50,c,,,,,39,1,157,2,1192.920426900033,1193.9207311999053,1193.9207311999053,1193.9207311999053,1193.9207311999053,1193.9207311999053,1194.9215337000787,1194.9215337000787,c,1,1.441086200531572,None,14,001,2023-10-16_22h50.02.683,Lab experiment 4,2023.1.3,61.27841471765154,
50,c,,,,,39,2,158,2,1196.388750600163,1197.3886727001518,1197.3886727001518,1197.3886727001518,1197.3886727001518,1197.3886727001518,1198.372260000091,1198.372260000091,c,1,1.351724499836564,None,14,001,2023-10-16_22h50.02.683,Lab experiment 4,2023.1.3,61.27841471765154,
-50,x,,,,,39,3,159,0,1199.7559166001156,1200.7570798001252,1200.7570798001252,1200.7570798001252,1200.7570798001252,1200.7570798001252,1201.7407824001275,1201.7407824001275,x,1,5.00160720013082,None,14,001,2023-10-16_22h50.02.683,Lab experiment 4,2023.1.3,61.27841471765154,
50,c,,,,,40,0,160,2,1206.7588689997792,1207.7597362999804,1207.7597362999804,1207.7597362999804,1207.7597362999804,1207.7597362999804,1208.7434347001836,1208.7434347001836,c,1,3.2162918001413345,None,14,001,2023-10-16_22h50.02.683,Lab experiment 4,2023.1.3,61.27841471765154,
150,v,,,,,40,1,161,1,1211.97740289988,1212.97837360017,1212.97837360017,1212.97837360017,1212.97837360017,1212.97837360017,1213.9620831999928,1213.9620831999928,v,1,1.213194000069052,None,14,001,2023-10-16_22h50.02.683,Lab experiment 4,2023.1.3,61.27841471765154,
150,v,,,,,40,2,162,1,1215.195257499814,1216.1962621998973,1216.1962621998973,1216.1962621998973,1216.1962621998973,1216.1962621998973,1217.179969499819,1217.179969499819,v,1,1.2061096001416445,None,14,001,2023-10-16_22h50.02.683,Lab experiment 4,2023.1.3,61.27841471765154,
-150,z,,,,,40,3,163,3,1218.413331499789,1219.3974919999018,1219.3974919999018,1219.3974919999018,1219.3974919999018,1219.414146500174,1220.39784780005,1220.39784780005,z,1,1.2851444003172219,None,14,001,2023-10-16_22h50.02.683,Lab experiment 4,2023.1.3,61.27841471765154,
150,v,,,,,41,0,164,1,1221.7144538001157,1222.715395799838,1222.715395799838,1222.715395799838,1222.715395799838,1222.715395799838,1223.7150721000507,1223.7150721000507,v,1,1.1801847000606358,None,14,001,2023-10-16_22h50.02.683,Lab experiment 4,2023.1.3,61.27841471765154,
-150,z,,,,,41,1,165,3,1224.9156439998187,1225.899935099762,1225.899935099762,1225.899935099762,1225.899935099762,1225.9166123000905,1226.900327899959,1226.900327899959,z,1,0.991764500271529,None,14,001,2023-10-16_22h50.02.683,Lab experiment 4,2023.1.3,61.27841471765154,
50,c,,,,,41,2,166,2,1227.9169275001623,1228.9177470998839,1228.9177470998839,1228.9177470998839,1228.9177470998839,1228.9177470998839,1229.901455000043,1229.901455000043,c,1,1.2132334001362324,None,14,001,2023-10-16_22h50.02.683,Lab experiment 4,2023.1.3,61.27841471765154,
50,c,,,,,41,3,167,2,1231.1352587998845,1232.135635800194,1232.135635800194,1232.135635800194,1232.135635800194,1232.135635800194,1233.119337500073,1233.119337500073,c,1,1.4523461000062525,None,14,001,2023-10-16_22h50.02.683,Lab experiment 4,2023.1.3,61.27841471765154,
50,c,,,,,42,0,168,2,1234.6025100001134,1235.6032163999043,1235.6032163999043,1235.6032163999043,1235.6032163999043,1235.6032163999043,1236.6031943000853,1236.6031943000853,c,1,2.0461238003335893,None,14,001,2023-10-16_22h50.02.683,Lab experiment 4,2023.1.3,61.27841471765154,
